"Time (s)";"Acceleration x (m/s^2)";"Acceleration y (m/s^2)";"Acceleration z (m/s^2)";"Absolute acceleration (m/s^2)"
-1.896458336E-3;2.859054565E-2;7.050338745E-2;9.797276459E0;9.797571850E0
8.083541667E-3;3.427871704E-2;8.622070312E-2;9.789342957E0;9.789782662E0
1.806254167E-2;3.218307495E-2;9.145980835E-2;9.797426147E0;9.797905887E0
2.804254166E-2;3.921844482E-2;1.007405090E-1;9.789642334E0;9.790239209E0
3.802254167E-2;2.933898926E-2;1.137634277E-1;9.782906342E0;9.783611776E0
4.800154167E-2;3.697311401E-2;1.167572021E-1;9.787696381E0;9.788462581E0
5.798154166E-2;2.409988403E-2;1.191522217E-1;9.787097626E0;9.787852573E0
6.796054167E-2;2.529739380E-2;1.296304321E-1;9.780361633E0;9.781253380E0
7.794054167E-2;2.978805542E-2;1.278341675E-1;9.791737976E0;9.792617704E0
8.791954166E-2;9.131011963E-3;1.269360352E-1;9.777816925E0;9.778645098E0
9.789954167E-2;6.286926270E-3;1.082249451E-1;9.773026886E0;9.773628123E0
1.078785417E-1;-1.556762695E-2;1.164578247E-1;9.784253540E0;9.784958973E0
1.178585417E-1;1.407073975E-2;1.225950623E-1;9.776469727E0;9.777248480E0
1.278375417E-1;3.906875610E-2;1.318757629E-1;9.782307587E0;9.783274467E0
1.378175417E-1;4.505630493E-2;1.360670471E-1;9.802665253E0;9.803713091E0
1.477965417E-1;4.730163574E-2;1.553768921E-1;9.775571594E0;9.776920753E0
1.577765417E-1;6.242019653E-2;1.610650635E-1;9.786648560E0;9.788172877E0
1.677555417E-1;6.750961304E-2;1.568737793E-1;9.787097626E0;9.788587583E0
1.777355417E-1;5.373825073E-2;1.507365417E-1;9.782307587E0;9.783616459E0
1.877145417E-1;4.924758911E-2;1.600172424E-1;9.771380310E0;9.772814539E0
1.976945417E-1;4.326004028E-2;1.817221069E-1;9.777068481E0;9.778852819E0
2.076735417E-1;2.754272461E-2;1.902543640E-1;9.772577820E0;9.774468403E0
2.176535417E-1;9.879455566E-3;1.790277100E-1;9.783505096E0;9.785147955E0
2.276325417E-1;1.017883301E-2;1.675016785E-1;9.797575836E0;9.799012842E0
2.376125417E-1;3.053649902E-2;1.752854919E-1;9.774224396E0;9.775843699E0
2.475915417E-1;2.754272461E-2;2.037263489E-1;9.781708832E0;9.783868902E0
2.575715417E-1;1.437011719E-2;2.139051819E-1;9.794282684E0;9.796628768E0
2.675507917E-1;1.466949463E-2;2.077679443E-1;9.775272217E0;9.777490968E0
2.775307917E-1;3.742218018E-2;2.164498901E-1;9.787846069E0;9.790310600E0
2.875097917E-1;3.802093506E-2;2.165995789E-1;9.789642334E0;9.792112029E0
2.974897917E-1;1.526824951E-2;2.299218750E-1;9.781708832E0;9.784422561E0
3.074687917E-1;4.790039062E-3;2.624043274E-1;9.781110077E0;9.784630464E0
3.174487917E-1;-4.490661621E-3;2.983296204E-1;9.783954163E0;9.788502428E0
3.274277917E-1;-2.140548706E-2;3.189866638E-1;9.784103851E0;9.789325761E0
3.374077917E-1;-1.481918335E-2;3.287164307E-1;9.784103851E0;9.789635452E0
3.473877917E-1;1.362167358E-2;3.366499329E-1;9.783954163E0;9.789753714E0
3.573667917E-1;9.580078125E-3;2.134561157E-1;9.772128754E0;9.774464470E0
3.673467917E-1;1.182540894E-2;1.411564636E-1;9.813592529E0;9.814614782E0
3.773257917E-1;-2.005828857E-2;4.370910645E-2;9.772428131E0;9.772546464E0
3.873057917E-1;2.574645996E-2;-1.317260742E-1;9.835896149E0;9.836811866E0
3.972847917E-1;1.945953369E-3;-2.201921082E-1;9.774523773E0;9.777003802E0
4.072647917E-1;-2.634521484E-2;-1.529818726E-1;9.818831635E0;9.820058665E0
4.172437917E-1;1.481918335E-2;1.429527283E-1;9.721084900E0;9.722147228E0
4.272237917E-1;2.130070496E-1;6.750961304E-1;9.751621399E0;9.777282173E0
4.372027917E-1;3.667373657E-1;9.035211182E-1;9.742191010E0;9.790869848E0
4.471827917E-1;5.284011841E-1;1.238823853E0;9.771230621E0;9.863611925E0
4.571617917E-1;6.173162842E-1;1.472787323E0;9.875264282E0;1.000355070E1
4.671417917E-1;5.391787720E-1;1.469643860E0;9.737400970E0;9.862430962E0
4.771207917E-1;6.147715759E-1;1.602717133E0;9.872719574E0;1.002084019E1
4.871007917E-1;4.857398987E-1;1.624571686E0;9.725725250E0;9.872431719E0
4.970797917E-1;3.805087280E-1;1.540895691E0;9.799970856E0;9.927667158E0
5.070597917E-1;3.432362366E-1;1.300794983E0;9.812095642E0;9.903893153E0
5.170387917E-1;3.981719971E-1;1.198856964E0;9.730215912E0;9.811875491E0
5.270187917E-1;2.872526550E-1;1.126407623E0;9.793384552E0;9.862134110E0
5.369977917E-1;1.100212097E-1;1.275946655E0;9.709259491E0;9.793358178E0
5.469777917E-1;2.544708252E-2;1.294058990E0;9.735604706E0;9.821264441E0
5.569567917E-1;1.654060364E-1;1.267115021E0;9.870025177E0;9.952403560E0
5.669367917E-1;1.100212097E-1;1.090632019E0;9.515861664E0;9.578789384E0
5.769157917E-1;5.044509888E-2;1.163231049E0;9.801916809E0;9.870826932E0
5.868957917E-1;-2.296224976E-1;1.165027313E0;9.244026947E0;9.319981187E0
5.968747917E-1;-2.366578674E-1;1.146166534E0;9.354347534E0;9.427275453E0
6.068547917E-1;8.431965637E-1;1.917063446E0;1.208541824E1;1.226553899E1
6.168347917E-1;6.653663635E-1;1.290167084E0;9.105564880E0;9.220550704E0
6.268137917E-1;4.017645264E-1;1.164727936E0;7.871680756E0;7.967519301E0
6.367937917E-1;-2.347119141E-1;-2.507286072E-1;1.221639587E1;1.222122263E1
6.467727917E-1;-1.012943573E0;1.891167297E0;8.847202148E0;9.103601171E0
6.567527917E-1;-1.344055023E0;-1.429527283E-1;9.775122528E0;9.868127473E0
6.667317917E-1;1.321302338E0;1.166673889E0;9.820478210E0;9.977412496E0
6.767117917E-1;1.273551636E0;4.791535950E-1;9.647288361E0;9.742776537E0
6.866907917E-1;5.731581116E-1;1.288071442E0;1.044123734E1;1.053598953E1
6.966707917E-1;-1.537901917E0;1.010249176E0;8.071066132E0;8.278155242E0
7.066497917E-1;-3.579057312E-1;9.892927551E-1;1.146944916E1;1.151759787E1
7.166297917E-1;5.014572144E-2;4.578977966E-1;8.592132568E0;8.604471341E0
7.266087917E-1;4.067042542E-1;3.546125793E-1;1.002600082E1;1.004051049E1
7.365887917E-1;-4.236190796E-2;1.159638519E0;9.203461304E0;9.276327721E0
7.465677917E-1;5.337899780E-1;9.360035706E-1;1.205563019E1;1.210368761E1
7.565477917E-1;1.161883850E0;-3.441343689E-1;8.437653809E0;8.524224559E0
7.665267917E-1;4.245172119E-1;7.408094788E-1;9.043444061E0;9.083660828E0
7.765067917E-1;-1.569336548E0;6.981481934E-1;1.228480362E1;1.240429877E1
7.864857917E-1;-1.067729645E0;1.445394287E0;5.603896637E0;5.884969733E0
7.964657917E-1;-2.246827698E-1;7.470964050E-1;1.182061890E1;1.184633557E1
8.064447917E-1;1.358425140E0;5.867797852E-2;1.031924103E1;1.040843395E1
8.164247917E-1;6.692582703E-1;1.285826111E-1;8.942853241E0;8.968782761E0
8.264037917E-1;-5.957611084E-2;1.121767273E0;1.119357285E1;1.124979929E1
8.363837917E-1;-1.347797241E0;1.110241241E0;8.308771820E0;8.490281631E0
8.463627917E-1;-2.288740540E-1;9.984237671E-1;1.029035110E1;1.034120685E1
8.563427917E-1;4.405339050E-1;7.529342651E-2;9.630373535E0;9.640738231E0
8.663227917E-1;8.842112732E-1;-9.729766846E-3;9.914482727E0;9.953838053E0
8.763017917E-1;-2.109114075E-1;1.785786438E-1;9.625583496E0;9.629549916E0
8.862817917E-1;-9.547146606E-1;9.675878906E-1;9.693093109E0;9.787939540E0
8.962607917E-1;-1.369651794E-1;1.131946106E0;1.000055374E1;1.006534334E1
9.062407917E-1;5.761518860E-1;6.418652344E-1;9.571994934E0;9.610776711E0
9.162197917E-1;4.950205994E-1;3.296145630E-1;9.806706848E0;9.824723424E0
9.261997917E-1;-1.299298096E-1;-3.472778320E-2;1.000324814E1;1.000415219E1
9.361787917E-1;-2.659968567E-1;3.074606323E-1;9.461824036E0;9.470554390E0
9.461587917E-1;-1.495390320E-1;2.029779053E-1;1.001761826E1;1.002079026E1
9.561377917E-1;4.939727783E-2;6.336323547E-1;9.470056915E0;9.491359651E0
9.661177917E-1;3.152444458E-1;4.114942932E-1;1.039558228E1;1.040849833E1
9.760967917E-1;4.314028931E-1;3.748205566E-1;9.305848389E0;9.323379920E0
9.860767917E-1;1.170565796E-1;3.191363525E-1;9.869875488E0;9.875727437E0
9.960557917E-1;-1.957928467E-1;-4.819976807E-2;1.018946091E1;1.019145582E1
1.006035792E0;2.350112915E-1;6.855743408E-2;9.391769714E0;9.394959755E0
1.016014792E0;5.306465149E-1;-6.017486572E-2;1.051847672E1;1.053202541E1
1.025994792E0;3.860472107E-1;5.704637146E-1;9.300609283E0;9.326081403E0
1.035973792E0;7.065307617E-2;3.457809448E-1;9.951904907E0;9.958160854E0
1.045953792E0;-5.418731689E-2;6.333329773E-1;9.642947388E0;9.663875064E0
1.055932792E0;2.287243652E-1;7.723937988E-2;9.863588562E0;9.866542458E0
1.065912792E0;5.249583435E-1;1.125659180E-1;9.796827393E0;9.811527878E0
1.075891792E0;-5.343887329E-2;-2.903961182E-1;9.275760956E0;9.280459414E0
1.085871792E0;-2.604583740E-2;2.213896179E-1;1.040291702E1;1.040530511E1
1.095851792E0;-1.031355286E-1;4.575984192E-1;9.453890533E0;9.465520560E0
1.105830792E0;2.612068176E-1;5.429209900E-1;9.583071899E0;9.601992462E0
1.115810792E0;3.278182983E-2;3.327580261E-1;9.829160156E0;9.834845801E0
1.125789792E0;-5.782475281E-1;1.197509766E-2;8.309520264E0;8.329624278E0
1.135769792E0;-2.981799316E-1;-1.200054474E0;9.540260925E0;9.620063437E0
1.145748792E0;2.009571075E0;1.609453125E0;1.458626770E1;1.481174941E1
1.155728792E0;-9.915380859E-1;1.440005493E0;5.655838623E0;5.919904909E0
1.165707792E0;-7.526348877E-1;1.395847321E0;1.044797333E1;1.056763908E1
1.175687792E0;3.007246399E-1;-8.779243469E-1;1.056817337E1;1.060883947E1
1.185666792E0;6.185137939E-1;-3.140469360E-1;8.293503571E0;8.322462752E0
1.195646792E0;3.682342529E-1;-3.778143311E-1;1.106499023E1;1.107756061E1
1.205625792E0;-2.152523804E-1;9.830058289E-1;8.698112183E0;8.756128687E0
1.215605792E0;-5.448669434E-1;2.004631348E0;8.509803772E0;8.759691037E0
1.225584792E0;6.985972595E-1;-7.529342651E-1;1.567435501E1;1.570797101E1
1.235564792E0;-1.794767761E-1;-1.152752838E0;5.165158997E0;5.295273220E0
1.245543792E0;-8.143066406E-1;-1.956581268E0;1.009755203E1;1.031755119E1
1.255523792E0;8.771759033E-1;1.881437531E0;1.174831924E1;1.193030804E1
1.265503125E0;3.712280273E-2;1.851200409E0;8.280480652E0;8.484967936E0
1.275483125E0;4.272116089E-1;2.179467773E0;9.045839081E0;9.314493771E0
1.285462125E0;-2.097138977E-1;6.065386963E-1;1.009006760E1;1.011045663E1
1.295442125E0;-2.492317200E-1;-1.589694214E-1;1.041564056E1;1.041983474E1
1.305421125E0;-5.393284607E-1;-1.440005493E-1;9.420959015E0;9.437482721E0
1.315401125E0;4.525090027E-1;1.037342834E0;1.056862244E1;1.062904628E1
1.325381125E0;4.101470947E-2;1.566043396E0;8.658893738E0;8.799466739E0
1.335360125E0;1.901046753E-1;1.366658020E0;1.024529480E1;1.033779278E1
1.345340125E0;-4.852908325E-1;5.903723145E-1;8.852291565E0;8.885218771E0
1.355319125E0;2.260299683E-2;3.472778320E-2;1.123249191E1;1.123256834E1
1.365299125E0;2.189945984E-1;3.240760803E-1;9.216334534E0;9.224630409E0
1.375278125E0;1.901046753E-2;3.791615295E-1;9.755064240E0;9.762448626E0
1.385258125E0;-5.831872559E-1;5.212161255E-1;9.405840454E0;9.438305371E0
1.395237125E0;1.869612122E-1;7.342231750E-1;1.069076843E1;1.071758218E1
1.405217125E0;4.236190796E-1;3.510200500E-1;9.198222198E0;9.214660049E0
1.415196125E0;4.592449951E-1;2.802172852E-1;9.939031677E0;9.953581183E0
1.425176125E0;-1.324745178E-1;3.429368591E-1;9.842033386E0;9.848897216E0
1.435155125E0;-6.369255066E-1;7.402107239E-1;9.383686523E0;9.434360539E0
1.445135125E0;-3.447331238E-1;7.818241882E-1;1.046818130E1;1.050299528E1
1.455114125E0;-1.496887207E-4;4.273612976E-1;8.836125183E0;8.846453863E0
1.465094125E0;3.692820740E-1;3.601510620E-1;1.038690033E1;1.039970079E1
1.475073125E0;-1.487905884E-1;6.533912659E-1;9.373807068E0;9.397729392E0
1.485053125E0;-2.716850281E-1;1.052311707E0;1.008333160E1;1.014173303E1
1.495032125E0;-3.390449524E-1;1.156794434E0;9.337582397E0;9.415071421E0
1.505012125E0;-2.070195007E-1;5.626799011E-1;9.404792633E0;9.423884030E0
1.514991125E0;1.711241455E0;1.124012604E0;1.378378647E1;1.393501062E1
1.524971125E0;8.123606873E-1;-5.450166321E-1;6.647676086E0;6.719268589E0
1.534950125E0;-3.237767029E-1;5.191204834E-1;7.548502808E0;7.573256371E0
1.544930125E0;-3.032693481E0;-3.098556519E-2;1.525732224E1;1.555583722E1
1.554910125E0;-1.567540283E0;2.194436646E-1;3.956721954E0;4.261570918E0
1.564889125E0;1.231489105E0;2.129172363E0;1.141915375E1;1.168105358E1
1.574869125E0;1.892065430E0;7.864645386E-1;1.045306274E1;1.065199318E1
1.584848125E0;1.860032043E0;4.236190796E-1;1.216759735E1;1.231623309E1
1.594828125E0;-9.714797974E-1;-2.218985596E0;1.082773361E1;1.109538126E1
1.604807125E0;-2.253264313E0;5.643264771E-2;5.221292267E0;5.687027136E0
1.614787125E0;-2.347119141E0;9.955796814E-1;1.301348831E1;1.326088327E1
1.624766125E0;1.229393463E0;2.823877716E0;1.023736130E1;1.069061551E1
1.634746125E0;1.031055908E0;1.533560944E0;5.266049194E0;5.580874445E0
1.644725125E0;9.375004578E-1;5.557942200E-1;1.283086807E1;1.287707225E1
1.654705125E0;-9.319619751E-1;-4.082011414E-1;9.895322571E0;9.947491647E0
1.664684125E0;-1.206042023E0;-2.139051819E-1;9.293424225E0;9.373794675E0
1.674664125E0;5.089416504E-2;8.442443848E-1;1.031055908E1;1.034519054E1
1.684643125E0;9.083111572E-1;1.710193634E0;8.662186890E0;8.875994205E0
1.694623125E0;4.191284180E-1;9.650431824E-1;1.067969147E1;1.073139258E1
1.704602125E0;-5.406756592E-1;4.043092346E-1;8.457113342E0;8.484018046E0
1.714582125E0;7.679031372E-2;4.363426208E-1;1.088401657E1;1.089303026E1
1.724561125E0;-2.240840149E-1;2.709365845E-2;9.821675720E0;9.824269014E0
1.734541125E0;7.589218140E-2;6.054908752E-1;9.266330566E0;9.286401940E0
1.744520125E0;3.852987671E-1;3.149450684E-1;1.079016174E1;1.080163117E1
1.754500125E0;-1.841171265E-2;3.908372498E-1;8.446335754E0;8.455393570E0
1.764479125E0;-2.350112915E-1;3.053649902E-2;1.013557297E1;1.013834317E1
1.774459125E0;3.724255371E-1;9.231303406E-1;1.088266937E1;1.092809970E1
1.784439125E0;3.375480652E-1;7.418572998E-1;8.599317627E0;8.637855903E0
1.794418125E0;1.689985657E-1;-6.765930176E-2;9.805958405E0;9.807647961E0
1.804398125E0;-9.131011963E-3;-4.727169800E-1;9.809850311E0;9.821237592E0
1.814377125E0;1.603166199E-1;-4.436773682E-1;1.018047958E1;1.019140400E1
1.824357125E0;1.336570587E0;1.134191437E0;1.331511108E1;1.343000351E1
1.834336125E0;-6.286926270E-1;-1.505868530E-1;5.403912506E0;5.442444413E0
1.844316125E0;2.100132751E-1;1.818717957E-1;1.118234619E1;1.118579677E1
1.854295125E0;-1.013692017E0;-9.339079285E-1;9.664652252E0;9.762441225E0
1.864275125E0;7.659571838E-1;1.363065491E0;8.774453430E0;8.912669125E0
1.874254125E0;5.010081482E-1;3.171903992E-1;1.069481003E1;1.071123618E1
1.884234125E0;8.744815063E-1;-1.259181519E0;1.160342056E1;1.170425669E1
1.894213125E0;-1.525777130E0;-5.369334412E-1;6.780599670E0;6.970855418E0
1.904193125E0;1.574725342E-1;6.248007202E-1;1.041758652E1;1.043749407E1
1.914172125E0;8.903485107E-1;2.872526550E0;1.130913254E1;1.170216254E1
1.924152125E0;-5.264552307E-1;1.005608826E0;9.723479919E0;9.789507953E0
1.934131125E0;-1.076710968E0;-1.041833496E0;8.406069489E0;8.538543657E0
1.944111125E0;-6.903643799E-1;7.725434875E-1;8.426876221E0;8.490327983E0
1.954090125E0;3.809577942E-1;1.264270935E0;1.167751648E1;1.175193180E1
1.964070125E0;1.197509766E-2;7.926017761E-1;1.000459534E1;1.003594982E1
1.974049125E0;-5.101391602E-1;-3.212319946E-1;8.124654694E0;8.146989987E0
1.984029125E0;-5.578898621E-1;-5.297483826E-1;1.025038422E1;1.027921451E1
1.994008125E0;3.531156921E-1;7.652087402E-1;9.679471436E0;9.716089871E0
2.003988125E0;6.712042236E-1;5.352868652E-1;1.031864227E1;1.035429503E1
2.013967125E0;2.245330811E-3;-8.143066406E-2;9.441616058E0;9.441967474E0
2.023947125E0;-4.191284180E-2;-5.655239868E-1;9.717642059E0;9.734173887E0
2.033927125E0;4.477189636E-1;-2.155517578E-1;1.092084000E1;1.093213891E1
2.043906125E0;5.541476440E-1;3.466790771E-1;8.957971802E0;8.981788508E0
2.053886125E0;1.622625732E-1;1.669029236E-1;1.018676651E1;1.018942578E1
2.063865125E0;2.564167786E-1;3.489244080E-1;9.570048981E0;9.579840046E0
2.073845125E0;3.237767029E-1;2.157014465E-1;9.773625641E0;9.781365786E0
2.083824125E0;-7.514373779E-2;-3.013233948E-1;9.705666962E0;9.710634044E0
2.093804125E0;-6.673123169E-1;-7.152127075E-1;7.573351135E0;7.636261020E0
2.103783125E0;2.299069061E0;2.169738007E0;1.731733841E1;1.760351360E1
2.113763125E0;-4.257147217E-1;2.300715637E-1;4.040397949E0;4.069272851E0
2.123742125E0;9.422904968E-1;-3.715274048E-1;1.101424576E1;1.106072121E1
2.133722125E0;-2.234702911E0;-3.939807129E-1;7.898475037E0;8.217969689E0
2.143701125E0;1.160386963E0;1.513352966E0;1.104508163E1;1.120850407E1
2.153681125E0;9.446855164E-1;9.654922485E-1;8.380921783E0;8.489078628E0
2.163660125E0;-9.128018188E-1;6.310876465E-1;1.382060989E1;1.386509057E1
2.173640125E0;-7.610174561E-1;-1.419947205E0;4.347259827E0;4.636169284E0
2.183619125E0;-3.026705933E-1;9.849517822E-2;1.060020676E1;1.060498440E1
2.193599125E0;-8.068222046E-2;1.267264709E0;1.525103531E1;1.530380827E1
2.203578125E0;1.517544250E0;5.394781494E-1;6.030210114E0;6.241587237E0
2.213558125E0;-1.443448334E0;-5.650749207E-1;8.940607910E0;9.073991545E0
2.223537125E0;-3.323089600E-2;4.700225830E-1;1.122440872E1;1.123429467E1
2.233517125E0;1.424737244E0;7.764353943E-1;7.890840912E0;8.055935602E0
2.243496125E0;-4.924758911E-1;4.526586914E-1;1.131586853E1;1.133562142E1
2.253476125E0;2.498304749E-1;2.255809021E-1;1.102981339E1;1.103494836E1
2.263456125E0;-2.474354553E-1;1.965412903E-1;6.458319855E0;6.466045788E0
2.273435500E0;-4.472698975E-1;8.382568359E-3;1.220726486E1;1.221545890E1
2.283415500E0;4.019142151E-1;7.970924377E-1;9.847272491E0;9.887652245E0
2.293394500E0;1.637594604E-1;3.809577942E-1;8.793463898E0;8.803235389E0
2.303374500E0;-6.966513062E-1;6.092330933E-2;1.079584991E1;1.081847540E1
2.313353500E0;4.444258118E-1;5.686674500E-1;8.385412445E0;8.416414845E0
2.323333500E0;4.990621948E-1;4.134402466E-1;1.066098038E1;1.068066002E1
2.333312500E0;3.278182983E-2;-5.583389282E-2;1.023361908E1;1.023382390E1
2.343292500E0;1.437011719E-2;2.040257263E-1;8.043822784E0;8.046422682E0
2.353271500E0;-4.423301697E-1;-3.282673645E-1;1.003123993E1;1.004635207E1
2.363251500E0;2.103425903E0;2.024839325E0;1.458806396E1;1.487736486E1
2.373230500E0;-7.792794800E-1;2.779719543E-1;6.564748535E0;6.616681060E0
2.383210500E0;-3.143463135E-1;-1.315614166E0;9.143136749E0;9.242651343E0
2.393189500E0;-1.479822693E0;-5.745053101E-1;7.810757446E0;7.970436841E0
2.403169500E0;-1.978884888E-1;4.207749939E-1;1.264211060E1;1.265065895E1
2.413148500E0;2.102527771E0;1.880988464E0;8.497678986E0;8.953730439E0
2.423128500E0;-1.663790131E0;-1.038989410E0;1.282652710E1;1.297565004E1
2.433107500E0;-1.462458801E-1;-7.586224365E-1;4.668491821E0;4.731988139E0
2.443087500E0;-9.601034546E-1;-1.279389496E0;9.108558655E0;9.247944469E0
2.453066500E0;9.014254761E-1;9.394464111E-1;1.739293121E1;1.744159349E1
2.463046500E0;8.687933350E-1;1.963916016E-1;4.160148926E0;4.254434229E0
2.473025500E0;-6.225553894E-1;-6.785389709E-1;9.408983917E0;9.453939322E0
2.483005500E0;-1.537752228E0;-3.695814514E-1;8.698261871E0;8.840872805E0
2.492984500E0;2.236648865E0;1.942061462E0;1.306707687E1;1.339860810E1
2.502964500E0;1.197509766E-1;2.347119141E-1;9.821975098E0;9.825508882E0
2.512944500E0;-1.340462494E0;-4.978646851E-1;8.080945587E0;8.206484663E0
2.522923500E0;2.366578674E-1;5.978567505E-1;1.074989548E1;1.076910825E1
2.532903500E0;9.578581238E-1;1.132544861E0;9.745334473E0;9.857570392E0
2.542882500E0;-2.112107849E-1;7.590715027E-1;1.028316605E1;1.031330711E1
2.552862500E0;-6.231541443E-1;-6.436614990E-2;8.409512329E0;8.432814578E0
2.562841500E0;1.037642212E0;1.016685791E0;1.075378738E1;1.085146508E1
2.572821500E0;-5.240602112E-1;-7.334747314E-2;9.715396729E0;9.729797148E0
2.582800500E0;6.616241455E-2;-4.911286926E-1;1.001911514E1;1.003136347E1
2.592780500E0;-4.812492371E-1;-3.662882996E-1;8.942254486E0;8.962682815E0
2.602759500E0;4.080514526E-1;-1.267863464E-1;1.087159241E1;1.087998632E1
2.612739500E0;3.697311401E-2;-4.674778748E-1;8.573720856E0;8.586535500E0
2.622718500E0;1.103505249E0;6.403683472E-1;1.231938171E1;1.238527195E1
2.632698500E0;7.673043823E-1;6.231541443E-1;1.093416229E1;1.097875139E1
2.642677500E0;-4.490661621E-1;-9.220825195E-1;3.723955994E0;3.862608553E0
2.652657500E0;-1.109043732E0;-1.602417755E0;1.319895264E1;1.334204150E1
2.662636500E0;-3.143463135E-1;6.747967529E-1;8.371341705E0;8.404375421E0
2.672616500E0;1.872605896E0;2.516566772E0;1.028720764E1;1.075483158E1
2.682595500E0;-1.599723358E0;-5.307962036E-1;1.267549118E1;1.278706128E1
2.692575500E0;-2.754272461E-1;-4.593946838E-1;4.126319275E0;4.160939125E0
2.702554500E0;3.770658875E-1;3.839515686E-1;1.312635361E1;1.313738012E1
2.712534500E0;1.580413513E0;1.666634216E0;1.247475861E1;1.268443845E1
2.722513500E0;-2.874023438E-2;6.218069458E-1;5.434598694E0;5.470130971E0
2.732493500E0;-7.927514648E-1;6.813830566E-1;1.044153671E1;1.049373273E1
2.742472500E0;-5.316943359E-1;8.506809998E-1;1.008722351E1;1.013698353E1
2.752452500E0;-1.501377869E-1;3.113525391E-1;1.018347336E1;1.018933812E1
2.762432500E0;4.534071350E-1;-7.875123596E-1;1.020248383E1;1.024287215E1
2.772411500E0;5.743556213E-1;4.625381470E-2;9.610614624E0;9.627872935E0
2.782391500E0;8.577163696E-2;8.918453979E-1;1.056113800E1;1.059907453E1
2.792370500E0;-1.411564636E-1;8.054750061E-1;9.322314148E0;9.358111786E0
2.802350500E0;-4.194277954E-1;2.649490356E-1;9.046737213E0;9.060329567E0
2.812329500E0;3.682342529E-1;5.987548828E-4;1.019050873E1;1.019715965E1
2.822309500E0;5.926176453E-1;-1.743873596E-1;1.107262436E1;1.108984296E1
2.832288500E0;-1.974394226E-1;1.610650635E-1;8.490942993E0;8.494765282E0
2.842268500E0;6.735992432E-2;5.674699402E-1;1.040321640E1;1.041889970E1
2.852247500E0;-1.451980591E-1;5.111869812E-1;9.370813293E0;9.385868973E0
2.862227500E0;3.273692322E-1;5.152285767E-1;1.037402710E1;1.039197139E1
2.872206500E0;-8.484356689E-1;-8.478369141E-1;6.906038818E0;7.009425274E0
2.882186500E0;7.241940308E-1;7.794291687E-1;1.298175430E1;1.302527971E1
2.892165500E0;-1.347198486E-2;8.071215820E-1;1.220247482E1;1.222914627E1
2.902145500E0;3.402424622E-1;3.770658875E-1;4.823719025E0;4.850382340E0
2.912124500E0;5.590873718E-1;9.982740784E-1;9.530680847E0;9.599114919E0
2.922104500E0;-1.462907867E0;1.000818787E0;8.627758484E0;8.807948350E0
2.932083500E0;5.391787720E-1;9.538165283E-1;1.348081650E1;1.352526869E1
2.942063500E0;-1.162632294E0;-2.135908356E0;8.134085083E0;8.489826765E0
2.952042500E0;4.028123474E-1;-3.677851868E-1;1.184262314E1;1.185517805E1
2.962022500E0;8.655001831E-1;2.234852600E-1;1.005608826E1;1.009573906E1
2.972001500E0;7.246430969E-1;5.833369446E-1;8.418493652E0;8.469735827E0
2.981981500E0;8.068222046E-2;2.565664673E-1;9.652677155E0;9.656423366E0
2.991960500E0;9.653425598E-1;2.722837830E-1;9.168134766E0;9.222836863E0
3.001940500E0;-3.547622681E-2;-6.697073364E-1;1.125599304E1;1.127595432E1
3.011920500E0;-2.797682190E-1;-1.386117554E-1;9.803114319E0;9.808085125E0
3.021899500E0;-3.909869385E-1;-4.311035156E-2;9.055718536E0;9.064257692E0
3.031879500E0;-1.583706665E-1;2.734812927E-1;1.087713089E1;1.088172090E1
3.041858500E0;-2.844085693E-1;-5.313949585E-1;9.208401031E0;9.228104810E0
3.051838500E0;2.170486450E-2;6.436614990E-3;8.913214874E0;8.913243625E0
3.061817500E0;1.163081360E-1;1.880090332E-1;1.029544052E1;1.029781387E1
3.071797500E0;-1.761836243E-1;1.005908203E-1;9.071435852E0;9.073704183E0
3.081776500E0;-9.340576172E-2;4.556524658E-1;9.893526306E0;9.904453876E0
3.091756500E0;-3.535647583E-1;1.526824951E-2;1.018676651E1;1.019291190E1
3.101735500E0;-1.761836243E-1;1.820214844E-1;8.765921173E0;8.769580748E0
3.111715500E0;1.023870850E-1;-4.183799744E-1;1.043270508E1;1.044159280E1
3.121694500E0;1.176703033E0;5.792953491E-1;1.186073547E1;1.193303227E1
3.131674500E0;2.698887634E-1;9.400451660E-1;1.089674011E1;1.094054249E1
3.141653500E0;-2.359094238E-1;-8.704399109E-1;5.317991180E0;5.393917787E0
3.151633500E0;-7.078779602E-1;-8.126600647E-1;1.211655350E1;1.216438968E1
3.161612500E0;-2.372566223E-1;2.168989563E-1;8.703201599E0;8.709136234E0
3.171592500E0;7.475454712E-1;2.639012146E-1;1.054886353E1;1.057861001E1
3.181571500E0;-2.225571899E0;-1.484762421E0;1.200533478E1;1.229982735E1
3.191551500E0;1.869612122E-1;-1.309476929E0;6.121819611E0;6.263095055E0
3.201530500E0;-5.331912231E-1;8.015830994E-1;1.131107849E1;1.135197450E1
3.211510500E0;9.431886292E-1;1.254092102E0;1.207928101E1;1.218077918E1
3.221489500E0;5.281018066E-1;-7.812254333E-1;4.571194153E0;4.667442627E0
3.231469500E0;-2.176473999E-1;1.654060364E-1;1.304118073E1;1.304404555E1
3.241448500E0;-6.077362061E-2;-1.077758789E0;8.549920349E0;8.617795276E0
3.251428500E0;1.356628876E0;1.034349060E-1;1.015533188E1;1.024606784E1
3.261408500E0;-2.779719543E-1;-3.670367432E-1;1.192300598E1;1.193189239E1
3.271387000E0;-5.086422729E-1;-3.697311401E-2;7.371720428E0;7.389340028E0
3.281367000E0;1.480421448E-1;7.161108398E-1;9.696236572E0;9.723771638E0
3.291346000E0;4.897814941E-1;1.123413849E0;1.213107330E1;1.219282101E1
3.301326000E0;-9.894424438E-2;5.173242188E-1;8.939260712E0;8.954763893E0
3.311305000E0;-7.991880798E-1;9.879455566E-3;8.658294983E0;8.695106164E0
3.321285000E0;-4.297563171E-1;1.278341675E-1;1.000654129E1;1.001658129E1
3.331264000E0;-8.382568359E-3;7.463479614E-1;9.754914551E0;9.783428000E0
3.341244000E0;4.415817261E-2;5.141807556E-1;1.065798660E1;1.067047376E1
3.351223000E0;-3.538641357E-1;3.068618774E-2;8.740025024E0;8.747239501E0
3.361203000E0;-2.752775574E-1;-3.629951477E-1;9.704619141E0;9.715306268E0
3.371182000E0;-8.023315430E-2;1.501377869E-1;9.616751862E0;9.618258422E0
3.381162000E0;1.492845612E0;1.394649811E0;1.405741745E1;1.420509139E1
3.391141000E0;-5.257067871E-1;-7.458988953E-1;4.608766022E0;4.698239780E0
3.401121000E0;-1.187031555E-1;-4.923262024E-1;1.108983856E1;1.110139608E1
3.411100000E0;-1.029559021E0;-6.849755859E-1;9.732910309E0;9.811153164E0
3.421080000E0;2.437531128E0;1.494641876E0;1.069121750E1;1.106696182E1
3.431059000E0;-5.403762817E-2;-5.483097839E-1;1.017988083E1;1.019477991E1
3.441039000E0;-1.191522217E0;-8.366102600E-1;9.463769989E0;9.575102314E0
3.451018000E0;-9.325607300E-2;-1.721420288E-1;7.750133514E0;7.752605953E0
3.460998000E0;5.057981873E-1;2.231260071E0;1.240021362E1;1.260950638E1
3.470977000E0;-2.380050659E-1;5.195695496E-1;1.078118042E1;1.079631651E1
3.480957000E0;-6.271957397E-1;-5.658233643E-2;6.064039764E0;6.096651074E0
3.490936000E0;-9.348060608E-1;1.255888367E-1;1.069600754E1;1.073751425E1
3.500916000E0;-5.912704468E-2;1.488354950E0;1.059885956E1;1.070301455E1
3.510895000E0;-8.637039185E-2;8.545729065E-1;8.454568634E0;8.498087166E0
3.520875000E0;-6.426136780E-1;-2.959346008E-1;9.715396729E0;9.741122277E0
3.530855000E0;-4.149371338E-1;-5.059478760E-2;9.299112396E0;9.308502781E0
3.540834000E0;1.019380188E-1;4.574487305E-1;1.012853760E1;1.013937496E1
3.550814000E0;-2.273771667E-1;3.243754578E-1;1.051084259E1;1.051830461E1
3.560793000E0;-3.564088440E-1;-1.496887207E-1;9.589358826E0;9.597147319E0
3.570773000E0;-1.881587219E-1;-2.185455322E-2;9.032816162E0;9.034802109E0
3.580752000E0;-3.758683777E-1;-2.844085693E-2;9.720486145E0;9.727791980E0
3.590732000E0;-3.278182983E-2;4.894821167E-2;1.012569351E1;1.012586489E1
3.600711000E0;5.950126648E-1;4.552033997E-1;1.116977234E1;1.119486777E1
3.610691000E0;1.796264648E-3;-7.147636414E-1;8.952882385E0;8.981369233E0
3.620670000E0;-8.428971863E-1;-1.106648712E0;6.910978546E0;7.049593712E0
3.630650000E0;5.345384216E-1;-1.615590363E0;1.211355972E1;1.223250558E1
3.640629000E0;2.641107788E0;1.730251923E0;1.512888931E1;1.545485406E1
3.650609000E0;-2.245330811E-3;9.250762939E-2;3.681893463E0;3.683056092E0
3.660588000E0;1.728904724E-1;3.094065857E-1;1.212029572E1;1.212547697E1
3.670568000E0;-2.002386017E0;-1.179547119E-1;5.992488556E0;6.319286524E0
3.680547000E0;-1.626517639E0;1.796114960E0;1.496812363E1;1.516299157E1
3.690527000E0;-1.671124878E0;-1.464404755E0;7.646399231E0;7.962698088E0
3.700506000E0;2.444416809E-1;1.213077393E0;5.455555115E0;5.594138907E0
3.710486000E0;-6.759942627E-1;1.357976074E0;1.429721878E1;1.437746612E1
3.720465000E0;1.151405640E0;1.156794434E0;9.353150024E0;9.494489122E0
3.730445000E0;-8.280780029E-1;-5.077441406E-1;7.317682800E0;7.381869604E0
3.740424000E0;-1.556762695E-2;-9.708810425E-1;1.338501572E1;1.342018994E1
3.750404000E0;1.529369659E0;-3.757186890E-2;8.833430786E0;8.964925134E0
3.760383000E0;2.630030823E-1;-6.053411865E-1;8.965755615E0;8.990015702E0
3.770363000E0;6.833290100E-1;-2.519261169E-1;1.116842514E1;1.119214570E1
3.780342000E0;4.878355408E-1;-4.430786133E-2;7.597001953E0;7.612777770E0
3.790322000E0;2.909948730E-1;-3.510200500E-1;1.170296356E1;1.171184226E1
3.800302000E0;-4.117936707E-1;-5.364843750E-1;9.421707458E0;9.445949446E0
3.810281000E0;-6.472540283E-1;-2.993774414E-1;9.435029755E0;9.461942248E0
3.820261000E0;-5.807922363E-1;-8.202941895E-2;1.059930862E1;1.061552598E1
3.830240000E0;-9.639953613E-2;4.156855774E-1;9.500593414E0;9.510171533E0
3.840220000E0;-4.731660461E-1;3.188369751E-2;9.415570221E0;9.427505782E0
3.850199000E0;-3.010240173E-1;1.986369324E-1;9.513017578E0;9.519851655E0
3.860179000E0;6.011499023E-1;7.132667542E-1;9.998907166E0;1.004232419E1
3.870158000E0;-2.189945984E-1;-8.966354370E-2;9.688303070E0;9.691192628E0
3.880138000E0;-3.225791931E-1;-2.755769348E-1;8.467292175E0;8.477914647E0
3.890117000E0;1.926344147E0;1.142124939E0;1.498488876E1;1.515130827E1
3.900097000E0;-6.014492798E-1;1.434017944E-1;4.169579315E0;4.215174608E0
3.910076000E0;9.505233765E-2;5.483097839E-1;1.105496109E1;1.106895854E1
3.920056000E0;-5.923182678E-1;4.888833618E-1;8.174501038E0;8.210500294E0
3.930035000E0;7.360194397E-1;8.589138794E-1;1.295496002E1;1.300424726E1
3.940015000E0;-7.490423584E-1;-4.691244507E-1;8.254434814E0;8.301616488E0
3.949994000E0;-5.212161255E-1;-5.209167480E-1;9.158854065E0;9.188450810E0
3.959974000E0;3.459306335E-1;-1.070274353E-1;1.147798141E1;1.148369193E1
3.969953000E0;1.035845947E-1;4.671784973E-1;8.782386932E0;8.795413904E0
3.979933000E0;2.603086853E-1;6.322851562E-1;9.623637543E0;9.647898459E0
3.989912000E0;1.701960754E-1;-2.694396973E-2;9.905202026E0;9.906700756E0
3.999892000E0;-2.588117981E-1;3.499722290E-1;8.818761292E0;8.829496861E0
4.009871000E0;-4.363426208E-1;-8.083190918E-2;1.150537445E1;1.151392939E1
4.019851000E0;-6.661148071E-2;9.086105347E-2;9.156009979E0;9.156703094E0
4.029830000E0;7.978408813E-2;-4.688250732E-1;9.658664703E0;9.670365365E0
4.039810000E0;3.103047180E-1;1.134640503E-1;1.013183075E1;1.013721645E1
4.049790000E0;7.331753540E-1;1.255588989E0;9.864037628E0;9.970621251E0
4.059769000E0;-2.068698120E-1;6.737489319E-1;8.785081329E0;8.813307365E0
4.069749000E0;-2.076182556E-1;6.843768311E-1;1.107397156E1;1.109704118E1
4.079728000E0;-6.445596313E-1;-2.228865051E-1;8.480764160E0;8.508142938E0
4.089708000E0;5.221142578E-1;-5.313949585E-2;1.069870193E1;1.071156619E1
4.099687000E0;4.174818420E-1;-2.628533936E-1;9.830357666E0;9.842729034E0
4.109667000E0;3.050656128E-1;4.234693909E-1;9.236692200E0;9.251425520E0
4.119646000E0;1.495390320E-1;6.388714600E-1;9.506580963E0;9.529197252E0
4.129626000E0;-5.514532471E-1;6.313870239E-1;9.759105835E0;9.795044510E0
4.139605000E0;7.800279236E-1;1.129401398E0;1.417866531E1;1.424494792E1
4.149585000E0;-6.481521606E-1;-3.692820740E-1;2.109563141E0;2.237571701E0
4.159564000E0;1.256786499E0;-1.434317322E0;1.341300751E1;1.354789832E1
4.169544000E0;-1.536105652E0;-1.832489319E0;1.396401169E1;1.416726015E1
4.179523000E0;-7.801776123E-1;7.961943054E-1;4.359683990E0;4.499938552E0
4.189503000E0;7.240443420E-1;-4.447251892E-1;1.492037292E1;1.494454914E1
4.199482000E0;9.762698364E-1;5.074447632E-2;7.702682190E0;7.764469764E0
4.209462000E0;1.656006317E0;1.275048523E0;7.146438904E0;7.445783684E0
4.219441000E0;-2.456391907E-1;8.379574585E-1;1.171299271E1;1.174549741E1
4.229421000E0;-8.839118958E-1;1.980381775E-1;9.890083466E0;9.931478758E0
4.239400000E0;-4.793032837E-1;-9.419911194E-1;9.142238617E0;9.203130219E0
4.249380000E0;7.631130981E-1;-9.066645813E-1;9.960137787E0;1.003039017E1
4.259359000E0;4.593946838E-1;-3.909869385E-1;1.019754410E1;1.021537175E1
4.269339125E0;7.566764832E-1;1.108444977E0;9.813293152E0;9.904641945E0
4.279318125E0;-2.314187622E-1;2.948867798E-1;8.727900238E0;8.735946166E0
4.289298125E0;4.191284180E-2;1.070124664E0;1.021146515E1;1.026747018E1
4.299278125E0;-3.611988831E-1;-1.898052979E-1;1.053449341E1;1.054239262E1
4.309257125E0;2.674937439E-1;3.308120728E-2;9.290280762E0;9.294189793E0
4.319237125E0;1.794767761E-1;-4.358935547E-1;9.725725250E0;9.737142638E0
4.329216125E0;6.804849243E-1;1.046024780E0;1.092084000E1;1.099190492E1
4.339196125E0;-4.745132446E-2;9.963281250E-1;8.275690613E0;8.335584951E0
4.349175125E0;2.589614868E-1;9.249266052E-1;1.019395157E1;1.023910147E1
4.359155125E0;-2.426454163E-1;-1.688488770E-1;9.685159607E0;9.689669930E0
4.369134125E0;-1.214723969E0;-3.106040955E-1;6.661597137E0;6.778562211E0
4.379114125E0;3.082090759E-1;8.277786255E-2;1.657682831E1;1.657989993E1
4.389093125E0;2.377056885E-1;-3.655398560E-1;5.706283722E0;5.722918599E0
4.399073125E0;2.764151917E0;7.981402588E-1;8.131540375E0;8.625515205E0
4.409052125E0;2.482437744E0;-1.206491089E-1;1.014290771E1;1.044297038E1
4.419032125E0;-2.264041901E0;6.683601379E-1;1.208362198E1;1.231204740E1
4.429011125E0;-1.746268616E0;-5.529501343E-1;9.434580688E0;9.610750267E0
4.438991125E0;-1.148411865E0;-1.247505798E0;5.955814819E0;6.192483403E0
4.448970125E0;3.822002106E0;-1.517095184E0;1.535252426E1;1.589368677E1
4.458950125E0;7.991880798E-1;-7.571255493E-1;6.846911774E0;6.934849784E0
4.468929125E0;-6.900650024E-1;2.655777283E0;1.021730301E1;1.057934891E1
4.478909125E0;-1.371448059E0;7.352709961E-1;1.129012207E1;1.139685700E1
4.488888125E0;4.995112610E-1;8.747808838E-1;6.339317322E0;6.418854820E0
4.498868125E0;1.120120697E0;-2.410437469E0;1.251562363E1;1.279475338E1
4.508847125E0;1.369053040E0;1.158590698E-1;1.005114853E1;1.014462007E1
4.518827125E0;-1.056802368E0;6.795867920E-2;8.160430298E0;8.228856073E0
4.528806125E0;4.589456177E-1;1.688039703E0;1.202000427E1;1.214662965E1
4.538786125E0;-2.502795410E-1;-1.453477478E-1;7.165449371E0;7.171292109E0
4.548766125E0;1.016386414E0;5.249583435E-1;1.201057388E1;1.206492883E1
4.558745125E0;4.745132446E-2;-4.763095093E-1;8.228089600E0;8.242001021E0
4.568725125E0;4.433779907E-1;6.580316162E-1;9.709259491E0;9.741627662E0
4.578704125E0;-2.586621094E-1;-6.402186584E-1;1.102277802E1;1.104438415E1
4.588684125E0;-1.607656860E-1;-1.127156067E-1;8.414002991E0;8.416293528E0
4.598663125E0;1.899549866E-1;-1.465901642E0;1.012045441E1;1.022783202E1
4.608643125E0;9.988728333E-1;4.641847229E-1;9.850715332E0;9.912104063E0
4.618622125E0;9.834548950E-1;2.181713104E0;1.396026947E1;1.416390410E1
4.628602125E0;-7.250921631E-1;4.984634399E-2;4.759203186E0;4.814380362E0
4.638581125E0;8.635542297E-1;1.145717468E0;7.758216705E0;7.889760508E0
4.648561125E0;-1.725761261E0;-1.300196228E0;1.026475433E1;1.048970656E1
4.658540125E0;7.414082336E-1;2.556383972E0;1.306228683E1;1.333072101E1
4.668520125E0;3.345542908E-1;-4.867877197E-1;2.958896942E0;3.017276913E0
4.678499125E0;3.948788452E-1;-1.152303772E0;1.867396729E1;1.871365243E1
4.688479125E0;-2.447410583E-1;-2.017654266E0;7.285799103E0;7.563973525E0
4.698458125E0;2.095642090E-3;-7.140151978E-2;8.056546326E0;8.056862992E0
4.708438125E0;8.524772644E-1;1.402134247E0;1.416654053E1;1.426126111E1
4.718417125E0;7.575746155E-1;1.511856079E0;7.141349487E0;7.338835098E0
4.728397125E0;-8.241860962E-1;8.837622070E-1;8.767717438E0;8.850603789E0
4.738376125E0;-5.453160095E-1;-8.098159790E-2;9.558522949E0;9.574407999E0
4.748356125E0;5.785469055E-1;4.845423889E-1;1.008408005E1;1.011227809E1
4.758335125E0;-1.058299255E-1;3.507206726E-1;1.030876282E1;1.031527003E1
4.768315125E0;4.210743713E-1;6.601272583E-2;9.156309357E0;9.166223996E0
4.778294125E0;8.008346558E-2;-7.487429810E-1;9.158255310E0;9.189160448E0
4.788274125E0;1.447489929E-1;-1.035845947E0;1.133907028E1;1.138720527E1
4.798254125E0;8.485853577E-1;4.628375244E-1;9.048383789E0;9.099866201E0
4.808233125E0;4.724176025E-1;6.635700989E-1;1.075992462E1;1.079071274E1
4.818213125E0;3.641926575E-1;5.471122742E-1;9.931547241E0;9.953270756E0
4.828192125E0;7.679031372E-2;1.371148682E-1;8.333320770E0;8.334802475E0
4.838172125E0;-1.175505524E0;-1.609153748E-1;9.755213928E0;9.827100578E0
4.848151125E0;-2.740800476E-1;1.933678894E0;1.284209473E1;1.298975099E1
4.858131125E0;-7.430548096E-1;-5.806425476E-1;7.132817230E0;7.194884145E0
4.868110125E0;1.866768036E0;-1.413959656E0;8.369994507E0;8.691427550E0
4.878090125E0;5.563929749E-1;-1.070274353E0;1.310674438E1;1.316213542E1
4.888069125E0;8.488847351E-1;-7.993377686E-2;8.004454651E0;8.049738440E0
4.898049125E0;1.360820160E0;1.347647552E0;9.099128265E0;9.298500988E0
4.908028125E0;-1.882485352E0;-3.755690002E-1;1.156495056E1;1.172317724E1
4.918008125E0;-1.099613342E0;-1.044827271E-1;1.147947830E1;1.153249705E1
4.927987125E0;4.236190796E-2;-9.961784363E-1;5.034780121E0;5.132560460E0
4.937967125E0;8.634045410E-1;1.762584686E0;1.395742538E1;1.409474709E1
4.947946125E0;1.319506073E0;1.716929626E0;9.307494965E0;9.556066457E0
4.957926125E0;9.193881226E-1;-1.194515991E-1;7.076534271E0;7.137007811E0
4.967905125E0;-1.477427673E0;-1.354982300E0;9.394164734E0;9.605680643E0
4.977885125E0;8.813671875E-1;-6.077362061E-1;1.103190903E1;1.108373440E1
4.987864125E0;1.315464478E0;-3.673361206E-1;1.180669785E1;1.188543212E1
4.997844125E0;-4.357438660E-1;-8.619076538E-1;9.747130737E0;9.794861670E0
5.007823125E0;-5.987548828E-3;-7.943980408E-1;8.894803162E0;8.930208698E0
5.017803125E0;6.571334839E-1;2.576142883E-1;9.295968933E0;9.322726422E0
5.027782125E0;6.099815369E-1;4.727169800E-1;1.078851517E1;1.081608054E1
5.037762125E0;-6.825805664E-2;-2.067201233E-1;9.618997192E0;9.621460355E0
5.047741125E0;2.011816406E-1;-1.526824951E-2;8.584498444E0;8.586869086E0
5.057721125E0;-7.322772217E-1;-5.532495117E-1;9.571845245E0;9.615744191E0
5.067701125E0;1.359173584E-1;9.695338440E-1;1.132260452E1;1.136485119E1
5.077680125E0;1.335223389E-1;-6.092330933E-2;7.899672546E0;7.901035768E0
5.087660125E0;1.519340515E-1;-2.613565063E-1;8.541986847E0;8.547334700E0
5.097639125E0;7.188052368E-1;1.144519958E0;1.373873016E1;1.380504666E1
5.107619125E0;2.002835083E-1;2.094145203E-1;7.735613708E0;7.741039166E0
5.117598125E0;9.084608459E-1;9.283694458E-1;1.056562866E1;1.064517167E1
5.127578125E0;-1.883533173E0;-1.543440399E0;8.223000183E0;8.575991925E0
5.137557125E0;1.803000641E0;1.087338867E0;1.117935242E1;1.137589722E1
5.147537125E0;8.695417786E-1;8.318202209E-1;7.885452118E0;7.976740117E0
5.157516125E0;-2.906954956E-1;2.619552612E-2;1.358619736E1;1.358933217E1
5.167496125E0;-1.966909790E-1;-1.516346741E0;4.729115753E0;4.970164040E0
5.177475125E0;7.421566772E-1;4.797523499E-1;1.202808746E1;1.206050774E1
5.187455125E0;1.440005493E-1;6.478527832E-1;1.226998444E1;1.228791957E1
5.197434125E0;1.940564575E0;3.911366272E-1;9.145980835E0;9.357763844E0
5.207414125E0;-9.574090576E-1;-9.939331055E-1;7.127578125E0;7.259952138E0
5.217393125E0;4.909790039E-2;-3.992198181E-1;1.071307205E1;1.072062031E1
5.227373125E0;1.360820160E0;8.165519714E-1;9.812844086E0;9.940346960E0
5.237352125E0;-5.463638306E-2;4.083508301E-1;1.074525513E1;1.075315039E1
5.247332125E0;1.035845947E-1;-9.259744263E-1;8.929530945E0;8.978010988E0
5.257311125E0;1.926493835E-1;1.302291870E-1;8.735833740E0;8.738928113E0
5.267291125E0;6.556365967E-2;4.692741394E-1;1.222178467E1;1.223096633E1
5.277269792E0;7.994874573E-1;6.950047302E-1;8.936716003E0;8.999283566E0
5.287249792E0;3.332070923E-1;-1.942959595E-1;8.700656891E0;8.709202502E0
5.297228792E0;-1.736389160E-2;-1.927990723E-1;1.053149963E1;1.053327857E1
5.307208792E0;4.772076416E-1;-1.047821045E-3;8.941655731E0;8.954380796E0
5.317187792E0;2.571652222E-1;2.652484131E-1;1.134026779E1;1.134628416E1
5.327167792E0;-8.400531006E-1;-1.077758789E-2;9.005572815E0;9.044675068E0
5.337147792E0;-7.535330200E-1;-1.579814758E0;3.544628906E0;3.953229157E0
5.347126792E0;-1.272653503E0;-1.341959381E0;1.148262177E1;1.163061067E1
5.357106792E0;1.904339905E0;1.286724243E0;1.977597565E1;1.990907789E1
5.367085792E0;1.488055573E0;1.036744080E0;3.083288269E0;3.577123736E0
5.377065792E0;1.297501831E0;-5.947132874E-1;5.554948425E0;5.735385506E0
5.387044792E0;2.027384033E0;-1.057101746E0;1.654060364E1;1.669788366E1
5.397024792E0;1.603166199E-1;-3.896397400E-1;9.272617493E0;9.282184857E0
5.407003792E0;9.909393311E-2;7.858657837E-2;1.116767670E1;1.116839282E1
5.416983792E0;-6.718029785E-1;-6.201603699E-1;4.816234589E0;4.902247825E0
5.426962792E0;8.987310791E-1;8.617579651E-1;1.304746765E1;1.310674469E1
5.436942792E0;1.444945221E0;-1.052760773E0;1.054437286E1;1.069485722E1
5.446921792E0;6.858737183E-1;-1.186582489E0;1.037223083E1;1.046238851E1
5.456901792E0;-7.021897888E-1;-5.393284607E-1;7.518565063E0;7.570519553E0
5.466880792E0;7.782316589E-1;2.103126526E-1;1.054482193E1;1.057559197E1
5.476860792E0;3.031196594E-1;-1.646575928E-3;9.990524597E0;9.995122109E0
5.486839792E0;-4.120930481E-1;1.781295776E-1;9.868228912E0;9.878435741E0
5.496819792E0;-6.334826660E-1;-9.756710815E-1;8.540040894E0;8.618905546E0
5.506798792E0;1.182540894E-1;4.245172119E-1;1.084779190E1;1.085673929E1
5.516778792E0;4.974156189E-1;-1.657054138E-1;1.026191025E1;1.027529477E1
5.526757792E0;9.698332214E-1;-2.275268555E-2;9.054221649E0;9.106043259E0
5.536737792E0;1.098715210E-1;-9.735754395E-1;9.545350342E0;9.595500718E0
5.546716792E0;8.906478882E-2;-8.295748901E-1;1.027238846E1;1.030621617E1
5.556696792E0;-8.322692871E-2;-7.470964050E-1;9.761051788E0;9.789954636E0
5.566675792E0;3.576063538E-1;-6.071374512E-1;9.733958130E0;9.759428214E0
5.576655792E0;5.824388123E-1;-7.548802185E-1;9.261540527E0;9.310489356E0
5.586635792E0;6.424639893E-1;-3.354524231E-1;1.003483246E1;1.006097166E1
5.596614792E0;1.941462708E-1;-1.031055908E0;8.927884369E0;8.989320796E0
5.606594792E0;-7.908055115E-1;1.278341675E-1;9.788744202E0;9.821467710E0
5.616573792E0;4.073030090E-1;8.018824768E-1;1.459988937E1;1.462756579E1
5.626553792E0;-3.245251465E-1;-3.911366272E-1;2.736609192E0;2.783403367E0
5.636532792E0;1.760938110E0;-1.321751404E0;1.166883453E1;1.187474754E1
5.646512792E0;-1.941612396E0;-1.773961029E0;1.013168106E1;1.046746185E1
5.656491792E0;1.632954254E0;1.836081848E0;1.080947159E1;1.108523397E1
5.666471792E0;-5.932164001E-1;-1.283880157E0;1.197973801E1;1.206293400E1
5.676450792E0;-1.944456482E-1;-1.831591187E0;7.284002838E0;7.513270442E0
5.686430792E0;3.350033569E-1;-7.137158203E-1;9.586215363E0;9.618583186E0
5.696409792E0;1.492097168E0;1.105301514E0;1.374232269E1;1.386720875E1
5.706389792E0;1.064586182E0;-2.656974792E-1;7.694748688E0;7.772586201E0
5.716368792E0;-7.783813477E-2;-1.223256226E0;9.167536011E0;9.249115151E0
5.726348792E0;2.230361938E-2;-9.815089417E-1;1.004276596E1;1.009063949E1
5.736327792E0;8.783734131E-1;3.091072083E-1;1.023960663E1;1.028185932E1
5.746307792E0;2.944377136E-1;-3.293151855E-1;1.049871780E1;1.050800731E1
5.756286792E0;1.907034302E-1;-9.478289795E-1;8.890611877E0;8.943026732E0
5.766266792E0;-5.733078003E-2;-6.249504089E-1;9.144633636E0;9.166142819E0
5.776245792E0;8.247848511E-2;3.725752258E-1;1.160791122E1;1.161418176E1
5.786225792E0;4.827461243E-1;8.083190918E-3;9.112001495E0;9.124783856E0
5.796204792E0;2.733316040E-1;-7.836204529E-1;7.607330475E0;7.652466801E0
5.806184792E0;-2.546205139E-1;-4.089495850E-1;1.135059631E1;1.136081459E1
5.816163792E0;-3.267704773E-1;1.360670471E-1;9.760303345E0;9.766719744E0
5.826143792E0;2.532733154E-1;-6.575825500E-1;8.558901672E0;8.587861202E0
5.836123792E0;2.621049500E-1;-9.166937256E-1;1.007075775E1;1.011578905E1
5.846102792E0;5.287005615E-1;2.878514099E-1;9.692943420E0;9.711618550E0
5.856082792E0;6.442602539E-1;-8.681945801E-2;1.080647781E1;1.082601365E1
5.866061792E0;2.297721863E-1;-1.023571472E0;9.471853180E0;9.529768962E0
5.876041792E0;8.951385498E-2;-8.993298340E-1;9.201515350E0;9.245793185E0
5.886020792E0;4.209246826E-1;-1.332229614E-1;1.094718521E1;1.095608461E1
5.896000792E0;6.718029785E-1;2.369572449E-1;9.837243347E0;9.863002821E0
5.905979792E0;4.421804810E-1;-7.171586609E-1;9.302704926E0;9.340779360E0
5.915959792E0;-5.298980713E-2;-8.345146179E-1;8.527167664E0;8.568069265E0
5.925938792E0;-1.642833710E0;2.086660767E-1;8.278235321E0;8.442252316E0
5.935918792E0;-1.058149567E0;-1.181044006E-1;1.340237961E1;1.344460518E1
5.945897792E0;8.951385498E-1;3.153941345E-1;6.094725952E0;6.168178898E0
5.955877792E0;3.334765320E0;7.415579224E-1;8.999734955E0;9.626307555E0
5.965856792E0;4.522096252E-1;-1.237776031E0;1.324131454E1;1.330672739E1
5.975836792E0;-5.819897461E-1;-2.280208282E0;8.829688568E0;9.137913443E0
5.985815792E0;3.152444458E-1;-2.029180298E0;7.728428650E0;7.996596847E0
5.995795792E0;6.265969849E-1;-1.188977509E0;1.396550858E1;1.403002926E1
6.005774792E0;9.080117798E-1;-1.271605682E0;1.300196228E1;1.309551410E1
6.015754792E0;5.975573730E-1;-1.201701050E0;4.095483398E0;4.309773137E0
6.025733792E0;3.293151855E-1;-7.632627869E-1;1.235845047E1;1.238637625E1
6.035713792E0;1.287322998E0;8.494834900E-1;1.087383774E1;1.098267590E1
6.045692792E0;6.021977234E-1;7.851173401E-1;7.613018646E0;7.677050491E0
6.055672792E0;-9.047186279E-1;-1.279239807E0;1.027119095E1;1.039001125E1
6.065651792E0;-5.511538696E-1;2.647993469E-1;8.854985962E0;8.876072649E0
6.075631792E0;7.170089722E-2;1.068478088E0;9.408834229E0;9.469580138E0
6.085610792E0;8.858578491E-1;4.364923096E-1;1.055095917E1;1.059707549E1
6.095590792E0;4.691244507E-1;1.004411316E-1;7.962541809E0;7.976981775E0
6.105569792E0;3.173400879E-2;-9.577084351E-1;1.050665131E1;1.055025754E1
6.115549792E0;-6.363267517E-1;-6.465055847E-1;1.287248154E1;1.290440476E1
6.125529792E0;-1.688039703E0;-1.382075958E0;1.010817993E1;1.034093388E1
6.135508792E0;-4.828958130E-1;-1.995949402E0;6.091881866E0;6.428687818E0
6.145488792E0;1.979333954E0;-3.098556519E-1;8.523275757E0;8.755569830E0
6.155467792E0;3.220552826E0;3.067121887E0;1.451426743E1;1.518035428E1
6.165447792E0;1.168170776E0;5.691165161E-1;8.876690826E0;8.971296261E0
6.175426792E0;-4.915777588E-1;-2.691403198E0;5.909561005E0;6.512158716E0
6.185406792E0;-2.200124817E0;-2.566862183E0;1.157123749E1;1.205499347E1
6.195385792E0;-6.789880371E-1;8.437953186E-1;1.201326828E1;1.206199113E1
6.205365792E0;1.848356323E0;4.206253052E-1;8.393795013E0;8.605181083E0
6.215344792E0;1.469943237E0;-5.309458923E-1;8.151598663E0;8.300072134E0
6.225324792E0;2.404000854E-1;-5.321434021E-1;9.927655334E0;9.944813183E0
6.235303792E0;-2.498304749E-1;2.495310974E-1;1.103864502E1;1.104429105E1
6.245283792E0;-4.156855774E-1;-1.051413574E0;1.096963852E1;1.102774838E1
6.255262792E0;2.845582581E-1;-6.824308777E-1;7.775730286E0;7.810804490E0
6.265242792E0;4.819976807E-1;1.781295776E-2;9.848020935E0;9.859825323E0
6.275222000E0;8.038284302E-1;7.340734863E-1;1.097083603E1;1.102471075E1
6.285202000E0;4.550537109E-1;-1.282832336E-1;8.627159729E0;8.640105061E0
6.295181000E0;-1.763333130E-1;-8.634045410E-1;9.871372375E0;9.910628306E0
6.305161000E0;-4.204756165E-1;-3.258723450E-1;9.417665863E0;9.432678455E0
6.315140000E0;6.789880371E-1;6.993457031E-1;1.016326538E1;1.020990070E1
6.325120000E0;7.545808411E-1;-9.639953613E-2;9.995164948E0;1.002407140E1
6.335099000E0;4.644841003E-1;-4.348457336E-1;9.399852905E0;9.421362477E0
6.345079000E0;-3.568579102E-1;-6.248007202E-1;8.999884644E0;9.028601614E0
6.355058000E0;1.472937012E-1;-2.450404358E-1;1.088566315E1;1.088941699E1
6.365038000E0;8.613088989E-1;-8.232879639E-2;9.237141266E0;9.277575643E0
6.375018000E0;1.572779388E0;7.427554321E-1;1.117291580E1;1.130749168E1
6.384997000E0;2.555186462E-1;2.999761963E-1;1.176927567E1;1.177587046E1
6.394977000E0;-9.714797974E-2;-7.780819702E-1;8.257278900E0;8.294426087E0
6.404956000E0;-9.906399536E-1;-2.199076996E0;8.245453491E0;8.590972612E0
6.414936000E0;1.004411316E-1;4.046086121E-1;1.140149048E1;1.140910959E1
6.424915000E0;1.039588165E0;1.482966156E0;9.450896759E0;9.622857254E0
6.434895000E0;1.144070892E0;-1.511856079E-2;9.864786072E0;9.930917934E0
6.444874000E0;1.896556091E-1;-9.792636108E-1;8.348289642E0;8.407667121E0
6.454854000E0;-3.839515686E-1;1.428030396E-1;9.899663544E0;9.908135536E0
6.464833000E0;-2.332150269E-1;1.682501221E-1;1.122261246E1;1.122629626E1
6.474813000E0;1.146166534E0;2.748284912E-1;8.261021118E0;8.344680841E0
6.484792000E0;8.904981995E-1;-1.243913269E-1;9.177864532E0;9.221803382E0
6.494772000E0;-4.677772522E-1;-4.987628174E-1;1.257415192E1;1.259273109E1
6.504751000E0;-5.572911072E-1;-7.081773376E-1;8.005053406E0;8.055617205E0
6.514731000E0;1.025966492E0;-4.375401306E-1;9.249715118E0;9.316720366E0
6.524710000E0;1.472487946E0;4.138893127E-1;1.082009949E1;1.092767487E1
6.534690000E0;9.711804199E-1;3.752696228E-1;9.514664154E0;9.571460320E0
6.544669000E0;2.272274780E-1;-1.139280853E0;1.016925293E1;1.023539439E1
6.554649000E0;1.941462708E-1;-8.452922058E-1;8.696016541E0;8.739159877E0
6.564628000E0;9.946815491E-1;-1.841171265E-2;9.072783051E0;9.127163999E0
6.574608000E0;1.517244873E0;5.658233643E-1;1.227597198E1;1.238231304E1
6.584587000E0;-1.640738068E0;-2.014810181E0;1.113249985E1;1.143171178E1
6.594567000E0;3.808081055E-1;-1.435814209E0;1.058583664E1;1.068955166E1
6.604546000E0;1.405277710E0;6.744973755E-1;7.877967682E0;8.030699032E0
6.614526000E0;1.471290436E0;7.400610352E-1;1.008512787E1;1.021871763E1
6.624505000E0;-2.120191040E0;-1.586850128E0;9.499246216E0;9.861489849E0
6.634485000E0;-1.419797516E0;6.520440674E-1;9.563312988E0;9.690095034E0
6.644465000E0;-3.483256531E-1;2.562072144E0;8.008346558E0;8.415411993E0
6.654444000E0;1.202449493E0;2.730022888E0;1.164368683E1;1.201974845E1
6.664424000E0;-7.349716187E-2;8.927435303E-1;6.950945435E0;7.008426020E0
6.674403000E0;-5.843847656E-1;1.172960815E0;9.885592804E0;9.972075397E0
6.684383000E0;-3.240760803E-1;7.060816956E-1;1.189860672E1;1.192394308E1
6.694362000E0;8.747808838E-1;6.352789307E-1;8.151748352E0;8.223127271E0
6.704342000E0;1.089733887E0;-4.079017639E-1;1.120285355E1;1.126311819E1
6.714321000E0;8.135581970E-1;-4.474195862E-1;1.017479141E1;1.021706619E1
6.724301000E0;6.123765564E-1;-3.906875610E-2;9.242380371E0;9.262727802E0
6.734280000E0;-3.448828125E-1;-7.024891663E-1;1.142529099E1;1.145206135E1
6.744260000E0;-6.414161682E-1;-4.939727783E-3;8.539442139E0;8.563498768E0
6.754239000E0;-6.081852722E-1;-5.209167480E-2;9.530531158E0;9.550059007E0
6.764219000E0;-2.248324585E-1;4.197271729E-1;1.106828339E1;1.107852055E1
6.774198000E0;-1.601669312E-2;5.152285767E-1;8.171656952E0;8.187899264E0
6.784178000E0;-4.793032837E-1;-8.574169922E-1;1.019664597E1;1.024385106E1
6.794157000E0;-8.580157471E-1;-1.185235291E0;9.528585205E0;9.640275397E0
6.804137000E0;-2.544708252E-2;-1.197509766E-1;9.373058624E0;9.373858108E0
6.814116000E0;2.502795410E-1;-2.668949890E-1;1.104762634E1;1.105368358E1
6.824096000E0;5.107379150E-1;1.556762695E-2;8.605754242E0;8.620910720E0
6.834075000E0;6.616241455E-2;-3.332070923E-1;9.455237732E0;9.461338436E0
6.844055000E0;-5.310955811E-1;4.864883423E-2;1.097427887E1;1.098723013E1
6.854034000E0;-4.249662781E-1;2.945874023E-1;9.571994934E0;9.585951444E0
6.864014000E0;-1.362167358E-1;-1.713935852E-1;9.730515289E0;9.732977887E0
6.873993000E0;2.936892700E-1;4.625381470E-1;9.743538208E0;9.758930871E0
6.883973000E0;1.806742859E-1;9.295669556E-1;9.426198120E0;9.473644965E0
6.893952000E0;-3.824546814E-1;5.134323120E-2;1.021775208E1;1.022503619E1
6.903932000E0;-4.296066284E-1;-2.514770508E-1;9.398655396E0;9.411829036E0
6.913912000E0;-3.830534363E-1;1.143621826E-1;9.361532593E0;9.370064094E0
6.923891000E0;-4.969665527E-2;2.276765442E-1;1.064975372E1;1.065230307E1
6.933871000E0;5.773493958E-1;-3.263214111E-1;9.245074768E0;9.268830857E0
6.943850000E0;1.125210114E0;-4.489164734E-1;8.411757660E0;8.498546389E0
6.953830000E0;-1.072220306E0;-2.290237427E-2;1.407328445E1;1.411408928E1
6.963809000E0;-2.629282379E0;-2.231260071E0;1.249661316E1;1.296367956E1
6.973789000E0;6.273454285E-1;-5.891748047E-1;3.482208710E0;3.586985745E0
6.983768000E0;3.126398621E0;2.284698944E0;1.181807419E1;1.243628140E1
6.993748000E0;1.454974365E0;8.012837219E-1;1.131047974E1;1.143179592E1
7.003727000E0;-9.154962158E-1;-1.669328613E0;8.067323914E0;8.288938802E0
7.013707000E0;-2.681074677E0;-2.710713043E0;9.497899017E0;1.023455971E1
7.023686000E0;-1.302740936E0;-9.039701843E-1;9.634115753E0;9.763733015E0
7.033666000E0;2.676883392E0;2.581082611E0;1.038779846E1;1.103331541E1
7.043645000E0;1.049317932E0;-6.421646118E-1;8.098159790E0;8.191070473E0
7.053625000E0;-1.638343048E0;-1.283730469E0;8.705297241E0;8.950660977E0
7.063604000E0;-2.679128723E0;-4.062551880E-1;1.179666870E1;1.210389055E1
7.073584000E0;1.359173584E-1;1.506018219E0;1.082923050E1;1.093429456E1
7.083563000E0;2.185605011E0;1.099613342E0;7.817493439E0;8.191411504E0
7.093543000E0;1.049766998E0;1.137634277E-2;7.793094177E0;7.863488858E0
7.103522000E0;-1.492246857E0;-1.184786224E0;1.129416367E1;1.145376148E1
7.113502000E0;-1.221759338E0;-7.833210754E-1;1.119042938E1;1.128414806E1
7.123481000E0;8.827143860E-1;-3.965254211E-1;8.789871368E0;8.842977766E0
7.133461000E0;1.374890900E0;6.616241455E-2;1.056652679E1;1.065580550E1
7.143440000E0;5.733078003E-1;3.064128113E-1;1.083012863E1;1.084962012E1
7.153420000E0;-5.105882263E-1;-7.785310364E-1;9.722731476E0;9.767206267E0
7.163399000E0;-5.086422729E-1;-1.140927429E0;9.540260925E0;9.621694803E0
7.173379000E0;4.055067444E-1;4.939727783E-2;8.874595184E0;8.883992092E0
7.183359000E0;9.273216248E-1;8.831634521E-1;1.061801971E1;1.069496357E1
7.193338000E0;3.957769775E-1;-1.374142456E-1;9.907746735E0;9.916600599E0
7.203318000E0;-2.574645996E-1;-1.098266144E0;8.568631439E0;8.642564509E0
7.213297000E0;-6.246510315E-1;-8.764274597E-1;1.037687119E1;1.043253419E1
7.223277000E0;1.173559570E-1;2.640509033E-1;1.011895752E1;1.012308237E1
7.233256000E0;7.526348877E-1;1.456471252E-1;9.499545593E0;9.530427002E0
7.243236000E0;5.146298218E-1;-1.291813660E-1;9.913135529E0;9.927325304E0
7.253215000E0;-2.330653381E-1;9.580078125E-3;9.108558655E0;9.111544984E0
7.263195000E0;-2.689906311E-1;-2.793191528E-1;1.033226395E1;1.033953836E1
7.273173667E0;3.427871704E-2;2.079176331E-1;9.340127106E0;9.342503900E0
7.283153667E0;-5.837860107E-2;8.637039185E-2;9.596843262E0;9.597409468E0
7.293132667E0;-2.107617188E-1;-4.857398987E-1;1.099284027E1;1.100558499E1
7.303112667E0;1.975891113E-2;-3.125500488E-1;9.307345276E0;9.312612632E0
7.313091667E0;5.929170227E-1;2.553689575E-1;9.433083801E0;9.455148539E0
7.323071667E0;3.643423462E-1;-2.260299683E-2;1.014141083E1;1.014797861E1
7.333050667E0;-1.276246033E0;-1.543889465E0;1.197524734E1;1.214162047E1
7.343030667E0;-6.276448059E-1;-5.740562439E-1;9.003626862E0;9.043714681E0
7.353009667E0;-1.619631958E-1;1.919757843E0;7.605534210E0;7.845753812E0
7.362989667E0;-9.461824036E-1;-1.681154022E0;1.215966385E1;1.231174094E1
7.372968667E0;1.002016296E0;-4.346960449E-1;4.112398224E0;4.254975495E0
7.382948667E0;2.222278748E0;2.772684174E0;9.874216461E0;1.049411507E1
7.392927667E0;5.294490051E-1;1.200653229E0;1.798345322E1;1.803126379E1
7.402907667E0;3.544628906E-1;-6.834786987E-1;5.062173157E0;5.120389062E0
7.412886667E0;-9.484277344E-1;-1.938768311E0;4.766388245E0;5.232283883E0
7.422866667E0;-9.945318604E-1;-1.758992157E0;1.583063004E1;1.595907248E1
7.432845667E0;2.150727539E0;2.542762299E0;8.571924591E0;9.196149208E0
7.442825667E0;7.908055115E-1;-1.368903351E0;1.057580750E1;1.069331445E1
7.452804667E0;-1.078207855E0;-2.184706879E0;7.786058807E0;8.158320175E0
7.462784667E0;-4.445755005E-2;6.357279968E-1;8.967402191E0;8.990018277E0
7.472763667E0;4.297563171E-1;8.475375366E-1;1.387045624E1;1.390296970E1
7.482743667E0;1.199904785E0;4.171824646E-1;8.641380157E0;8.734258053E0
7.492723667E0;-3.541635132E-1;-1.124162292E0;6.130950623E0;6.243214572E0
7.502702667E0;-4.255650330E-1;3.129991150E-1;1.274090515E1;1.275185234E1
7.512682667E0;3.080593872E-1;8.629554749E-1;9.809101868E0;9.851805529E0
7.522661667E0;6.182144165E-1;-3.592529297E-3;8.420289917E0;8.442954711E0
7.532641667E0;2.412982178E-1;-5.376818848E-1;1.040052200E1;1.041720618E1
7.542620667E0;-8.532257080E-3;7.792794800E-1;9.387578430E0;9.419871448E0
7.552600667E0;1.742376709E-1;-2.664459229E-2;1.075767929E1;1.075912322E1
7.562579667E0;3.622467041E-1;-6.270460510E-1;9.961784363E0;9.988070740E0
7.572559667E0;3.029699707E-1;3.385958862E-1;8.783434753E0;8.795178454E0
7.582538667E0;-2.433938599E-1;-1.920506287E-1;1.048644333E1;1.049102558E1
7.592518667E0;1.350192261E-1;-5.733078003E-2;9.862540741E0;9.863631526E0
7.602497667E0;5.200186157E-1;5.442681885E-1;9.255552979E0;9.286113727E0
7.612477667E0;4.466711426E-1;6.634204102E-1;1.060469742E1;1.063481307E1
7.622456667E0;-2.932402039E-1;-8.083190918E-3;9.413175201E0;9.417745087E0
7.632436667E0;-2.935395813E-1;4.685256958E-2;9.435478821E0;9.440160021E0
7.642415667E0;6.915618896E-2;5.183720398E-1;9.855056305E0;9.868922278E0
7.652395667E0;4.026626587E-1;8.897497559E-1;9.782906342E0;9.831533366E0
7.662374667E0;3.177891541E-1;5.331912231E-1;9.660161591E0;9.680082891E0
7.672354667E0;-1.055305481E-1;-4.189787292E-1;9.571396179E0;9.581143183E0
7.682333667E0;3.827540588E-1;2.927911377E-1;9.872869263E0;9.884623149E0
7.692313667E0;1.589694214E-1;-1.279838562E-1;1.034319122E1;1.034520448E1
7.702292667E0;3.103047180E-1;-6.827302551E-1;9.912237396E0;9.940566373E0
7.712272667E0;6.593788147E-1;-6.794371033E-1;8.974886627E0;9.024688647E0
7.722251667E0;2.974614258E0;1.142723694E0;1.375025620E1;1.411466234E1
7.732231667E0;1.179247742E0;1.049766998E0;9.704619141E0;9.832205686E0
7.742210667E0;-2.561922455E0;-2.773133240E0;1.281500107E1;1.335956463E1
7.752190667E0;-2.284698944E0;-2.067650299E0;8.180488586E0;8.741591419E0
7.762170667E0;-5.548960876E-1;-7.955955505E-1;3.637884979E0;3.764981948E0
7.772149667E0;9.524693298E-1;1.138233032E0;1.371897125E1;1.379901969E1
7.782129667E0;1.097817078E0;2.890788574E0;8.100255432E0;8.670409390E0
7.792108667E0;-1.322649536E0;-1.047821045E-3;4.674030304E0;4.857567516E0
7.802088667E0;-3.188818817E0;-2.283052368E0;1.172227341E1;1.236092988E1
7.812067667E0;-1.309327240E0;-3.591032410E-1;1.133832184E1;1.141931850E1
7.822047667E0;2.381248169E0;1.386865997E0;7.272027740E0;7.776639865E0
7.832026667E0;2.392025757E0;-3.403921509E-1;1.180490158E1;1.204962055E1
7.842006667E0;9.331594849E-1;-1.855092316E0;1.032163605E1;1.052845311E1
7.851985667E0;3.600013733E-1;-1.520388336E0;1.140029297E1;1.150686149E1
7.861965667E0;2.112107849E-1;-1.560055847E0;1.125150238E1;1.136110426E1
7.871944667E0;1.647923126E0;-6.251000977E-1;9.619146881E0;9.779283587E0
7.881924667E0;8.490344238E-1;9.729766846E-3;9.507179718E0;9.545020708E0
7.891903667E0;2.326162720E-1;6.253994751E-1;1.050725006E1;1.052841577E1
7.901883667E0;-7.330256653E-1;-2.755769348E-1;8.414601746E0;8.450963957E0
7.911862667E0;-5.198689270E-1;-2.739303589E-2;8.873397675E0;8.888655712E0
7.921842667E0;-9.071136475E-2;7.400610352E-1;9.260343018E0;9.290310635E0
7.931821667E0;2.459385681E-1;9.871971130E-1;9.224567413E0;9.280500411E0
7.941801667E0;-1.172062683E-1;-1.228944397E-1;9.769584045E0;9.771059962E0
7.951780667E0;-1.859133911E-1;-3.890409851E-1;9.656419373E0;9.666041164E0
7.961760667E0;5.110372925E-1;-1.047821045E-1;9.500144348E0;9.514456424E0
7.971739667E0;9.276210022E-1;-1.154100037E-1;1.089464447E1;1.093467322E1
7.981719667E0;8.982820129E-1;-4.555027771E-1;1.085243225E1;1.089906781E1
7.991698667E0;4.415817261E-1;-6.453080750E-1;8.984466705E0;9.018428849E0
8.001678667E0;3.369493103E-1;-5.255570984E-1;1.054452255E1;1.056298731E1
8.011657667E0;7.096742249E-1;2.106120300E-1;1.054901321E1;1.057495507E1
8.021637667E0;6.917115784E-1;6.372248840E-1;9.002579041E0;9.051571678E0
8.031617667E0;-1.655557251E-1;-5.117857361E-1;9.962083740E0;9.976594899E0
8.041596667E0;-2.040257263E-1;2.170486450E-2;8.853788452E0;8.856165511E0
8.051576667E0;9.265731812E-2;4.376898193E-1;9.047785034E0;9.058839428E0
8.061555667E0;4.436773682E-1;-1.841171265E-2;9.245224457E0;9.255882662E0
8.071535667E0;1.351389771E0;1.954635315E0;1.157198593E1;1.181345470E1
8.081514667E0;-1.851499786E0;4.427792358E-1;1.342573105E1;1.356002799E1
8.091494667E0;-1.458716583E0;-2.028880920E0;6.243067474E0;6.724589456E0
8.101473667E0;5.798941040E-1;-8.285270691E-1;1.784738617E0;2.051347413E0
8.111453667E0;2.342628479E0;8.415499878E-1;1.795635956E1;1.812807114E1
8.121432667E0;2.176174622E0;2.520009613E0;9.035360870E0;9.629326586E0
8.131412667E0;-2.118095398E-1;-1.903890839E0;8.433911591E0;8.648729868E0
8.141391667E0;-1.540296936E0;-2.868784332E0;9.115893402E0;9.679976793E0
8.151371667E0;1.285826111E-1;-5.508544922E-1;1.100376755E1;1.101829726E1
8.161350667E0;1.580862579E0;1.130598907E0;1.327843735E1;1.341992097E1
8.171330667E0;1.289568329E0;-1.206790466E0;7.021149445E0;7.239880471E0
8.181309667E0;-2.868035889E-1;-1.079255676E0;7.620802460E0;7.702186653E0
8.191289667E0;-1.182241516E0;3.875440979E-1;1.429182999E1;1.434588059E1
8.201268667E0;5.984555054E-1;1.088686066E0;8.773854675E0;8.861371914E0
8.211248667E0;7.650590515E-1;-7.285350037E-1;6.928043060E0;7.008128085E0
8.221227667E0;2.869532776E-1;-2.480342102E-1;1.103879471E1;1.104530904E1
8.231207667E0;-4.584965515E-1;6.767427063E-1;9.364825745E0;9.400434086E0
8.241186667E0;1.827699280E-1;-1.046623535E0;1.053030212E1;1.058376533E1
8.251166667E0;1.222358093E0;-9.421408081E-1;8.624315643E0;8.761313196E0
8.261145667E0;9.499246216E-1;1.128652954E-1;8.640931091E0;8.693721038E0
8.271125292E0;-1.061293030E-1;-5.884263611E-1;1.260603561E1;1.262020772E1
8.281104292E0;1.796264648E-1;-9.916877747E-1;9.338929596E0;9.393152629E0
8.291084292E0;5.122348022E-1;-7.695497131E-1;7.897427216E0;7.951348809E0
8.301063292E0;4.390370178E-1;-3.101550293E-1;1.179786621E1;1.181010571E1
8.311043292E0;5.254074097E-1;4.373904419E-1;9.788295135E0;9.812139675E0
8.321023292E0;-6.840774536E-2;-3.754193115E-1;8.655001831E0;8.663410182E0
8.331002292E0;-6.372248840E-1;-1.038390656E0;1.004575974E1;1.011936754E1
8.340982292E0;2.884501648E-1;2.691403198E-1;8.674311676E0;8.683278359E0
8.350961292E0;1.383423157E0;1.122665405E-2;1.038854691E1;1.048026204E1
8.360941292E0;1.100661163E0;7.063810730E-1;8.119116211E0;8.223775122E0
8.370920292E0;-3.012335815E0;-2.138303375E0;1.344923218E1;1.394734220E1
8.380900292E0;-1.744472351E0;-3.282673645E-1;1.447534836E1;1.458378049E1
8.390879292E0;6.689588928E-1;6.670129395E-1;-9.804611206E-2;9.497501260E-1
8.400859292E0;3.865112457E0;1.071771240E0;1.443089081E1;1.497793034E1
8.410838292E0;-1.166973267E0;-1.405577087E0;1.009066635E1;1.025470726E1
8.420818292E0;-3.626957703E-1;1.332229614E-2;7.667954407E0;7.676538966E0
8.430797292E0;-1.047671356E0;-1.920356598E0;1.200922668E1;1.220683867E1
8.440777292E0;1.682201843E0;8.737330627E-1;1.004875351E1;1.022597964E1
8.450756292E0;6.771917725E-1;3.444337463E-1;6.663094025E0;6.706269103E0
8.460736292E0;-1.435514832E-1;-7.276368713E-1;1.360191467E1;1.362211970E1
8.470715292E0;-1.736389160E-2;-3.082090759E-1;8.200546875E0;8.206355061E0
8.480695292E0;-1.567240906E-1;-2.561174011E-1;9.048084412E0;9.053065231E0
8.490674292E0;3.725752258E-1;-4.697232056E-1;1.162662231E1;1.164207020E1
8.500654292E0;6.608757019E-1;9.062155151E-1;8.589887238E0;8.662802434E0
8.510633292E0;-2.716850281E-1;-2.180964661E-1;1.026535309E1;1.027126345E1
8.520613292E0;2.510279846E-1;-3.228785706E-1;1.032941986E1;1.033751325E1
8.530592292E0;1.152603149E-2;4.411326599E-1;7.885003052E0;7.897341578E0
8.540572292E0;1.404080200E-1;1.938468933E-1;1.105600891E1;1.105859955E1
8.550551292E0;-4.414320374E-1;-1.898052979E-1;9.839788055E0;9.851513451E0
8.560531292E0;-1.944456482E-1;-8.681945801E-3;9.033863983E0;9.035960544E0
8.570510292E0;4.929249573E-1;-2.290237427E-2;9.992320862E0;1.000449778E1
8.580490292E0;8.214916992E-1;2.574645996E-1;9.654623108E0;9.692929587E0
8.590469292E0;2.671943665E-1;-3.724255371E-1;9.973609772E0;9.984136692E0
8.600449292E0;5.138813782E-1;-4.327500916E-1;9.992769928E0;1.001532813E1
8.610428292E0;5.278024292E-1;-1.552272034E-1;9.316326599E0;9.332556573E0
8.620408292E0;5.905220032E-1;-3.396437073E-1;9.967173157E0;9.990426158E0
8.630388292E0;-2.917433167E-1;9.062155151E-1;9.576186218E0;9.623392500E0
8.640367292E0;4.436773682E-1;7.321275330E-1;9.896071014E0;9.933029843E0
8.650347292E0;1.152603149E0;1.510359192E0;1.202913528E1;1.217825006E1
8.660326292E0;1.386117554E-1;-1.028211823E0;6.455924835E0;6.538761217E0
8.670306292E0;-1.001417542E-1;-6.007008362E-1;9.882898407E0;9.901643843E0
8.680285292E0;1.165476379E0;-3.650907898E-1;1.154608978E1;1.161050454E1
8.690265292E0;2.686463470E0;1.472937012E0;6.948251038E0;7.593735701E0
8.700244292E0;9.675878906E-1;-3.399430847E-1;1.276305908E1;1.280419715E1
8.710224292E0;6.481521606E-1;-8.870553589E-1;9.390123138E0;9.454172676E0
8.720203292E0;9.508227539E-1;-3.586541748E-1;8.176596680E0;8.239504232E0
8.730183292E0;3.177891541E-1;-8.521778870E-1;1.212164291E1;1.215571569E1
8.740162292E0;1.581311646E0;1.954934692E-1;9.507179718E0;9.639773359E0
8.750142292E0;3.546125793E-1;-1.036444702E0;8.416547699E0;8.487534558E0
8.760121292E0;3.908372498E-1;-6.469546509E-1;1.083791245E1;1.086423721E1
8.770101292E0;3.993695068E-1;-3.589535522E-1;9.056766357E0;9.072671079E0
8.780080292E0;9.430389404E-2;-8.110134888E-1;1.034199371E1;1.037417322E1
8.790060292E0;8.677455139E-1;-6.761439514E-1;9.435778198E0;9.499687528E0
8.800039292E0;9.476792908E-1;-1.339714050E-1;9.030720520E0;9.081297126E0
8.810019292E0;5.477110291E-1;-1.435514832E-1;1.137873779E1;1.139281652E1
8.819998292E0;1.048868866E0;-2.842588806E-1;8.740324402E0;8.807621680E0
8.829978292E0;6.268963623E-1;-2.248324585E-1;9.192983093E0;9.217075829E0
8.839957292E0;4.493655396E-1;1.660047913E-1;9.494755554E0;9.506832807E0
8.849937292E0;8.098159790E-2;4.273612976E-1;8.994495850E0;9.005007012E0
8.859916292E0;-1.114881592E0;-6.375242615E-1;1.239781860E1;1.246416079E1
8.869896292E0;1.112037506E0;4.549040222E-1;4.420756989E0;4.581119671E0
8.879875292E0;8.943901062E-1;3.577560425E-1;9.066945190E0;9.117972260E0
8.889855292E0;-3.003653870E0;-2.116299133E0;1.725372070E1;1.764062178E1
8.899834292E0;9.478289795E-1;6.096821594E-1;5.942043457E0;6.047972599E0
8.909814292E0;2.367925873E0;5.234614563E-1;9.761051788E0;1.005779384E1
8.919794292E0;1.959724731E0;1.001866608E0;1.153845566E1;1.174649806E1
8.929773292E0;1.323397980E0;-1.563648376E0;9.330696716E0;9.552919955E0
8.939753292E0;2.362237701E0;-1.039887543E0;1.351973557E1;1.376389417E1
8.949732292E0;-1.132844238E0;-7.442523193E-1;5.215903473E0;5.389146187E0
8.959712292E0;9.369017029E-1;9.861492920E-1;1.194590836E1;1.202310283E1
8.969691292E0;-2.897973633E-1;1.385818176E0;9.557475128E0;9.661770301E0
8.979671292E0;-8.029302979E-1;-3.305126953E-1;1.160581558E1;1.163825120E1
8.989650292E0;-3.806584167E-1;-1.365161133E0;6.758146362E0;6.905150831E0
8.999630292E0;-6.321354675E-1;7.667056274E-1;7.795938263E0;7.859013053E0
9.009609292E0;-1.293609924E0;9.960287476E-1;1.361179413E1;1.370935590E1
9.019589292E0;-3.769161987E-1;7.891589355E-1;9.364825745E0;9.405572756E0
9.029568292E0;-8.786727905E-2;-3.074606323E-1;6.269263000E0;6.277412785E0
9.039548292E0;-8.931925964E-1;-1.387913818E0;9.476194153E0;9.618854059E0
9.049527292E0;7.092251587E-1;-1.032552795E0;1.446816330E1;1.452229028E1
9.059507292E0;1.368903351E0;-1.068627777E0;1.024454636E1;1.039069737E1
9.069486292E0;-8.469387817E-1;-1.483564911E0;7.036118317E0;7.240526991E0
9.079466292E0;-1.076860657E0;1.073268127E-1;1.422282349E1;1.426393550E1
9.089445292E0;6.150709534E-1;9.589059448E-1;9.652377777E0;9.719372904E0
9.099425292E0;-1.616638184E-1;7.030879211E-1;4.715643768E0;4.770509822E0
9.109404292E0;-1.775457916E0;7.381150818E-1;1.633253632E1;1.644532782E1
9.119384292E0;9.096583557E-1;5.589376831E-1;4.487218781E0;4.612485452E0
9.129363292E0;5.960604858E-1;-3.626957703E-1;7.311545563E0;7.344762409E0
9.139343292E0;-1.299597473E0;-7.095245361E-1;1.301169205E1;1.309566755E1
9.149322292E0;-8.029302979E-1;1.738335114E0;3.689826965E0;4.157081797E0
9.159302292E0;2.095642090E-1;5.107379150E-1;1.723575806E1;1.724459701E1
9.169281292E0;8.523275757E-1;3.791615295E-1;7.237449646E0;7.297321642E0
9.179261292E0;3.128494263E-2;-1.445993042E0;8.678502960E0;8.798198012E0
9.189240292E0;-3.475772095E-1;-5.554948425E-1;1.331241669E1;1.332853415E1
9.199220292E0;6.798861694E-1;1.989363098E-1;8.918304291E0;8.946394373E0
9.209200292E0;-2.634521484E-1;-9.458830261E-1;8.672665100E0;8.728070902E0
9.219179292E0;-7.225474548E-1;-3.044668579E-1;1.232551895E1;1.235043288E1
9.229159292E0;-5.278024292E-1;3.182382202E-1;8.544980621E0;8.567178345E0
9.239138292E0;-3.911366272E-1;2.655477905E-1;8.818461914E0;8.831125297E0
9.249118292E0;-6.899153137E-1;-3.071612549E-1;9.702822876E0;9.732168460E0
9.259097292E0;-6.144721985E-1;5.230123901E-1;9.280700684E0;9.315713779E0
9.269077292E0;-1.019529877E0;-5.536985779E-1;1.019245468E1;1.025827255E1
9.279057000E0;1.059796143E-1;5.343887329E-2;9.082961884E0;9.083737335E0
9.289037000E0;5.881269836E-1;-4.775070190E-2;8.109835510E0;8.131273300E0
9.299016000E0;-2.914439392E-1;-7.797285461E-1;1.178140045E1;1.181077105E1
9.308996000E0;-1.056353302E0;-9.626481628E-1;1.296663574E1;1.304516065E1
9.318975000E0;-1.948947144E-1;1.344204712E0;6.846013641E0;6.979453634E0
9.328955000E0;-1.669178925E0;-1.326092377E0;1.027343628E1;1.049229109E1
9.338934000E0;1.827699280E0;1.190773773E0;1.138936569E1;1.159638210E1
9.348914000E0;1.075363770E0;1.139280853E0;2.637814636E0;3.067969060E0
9.358893000E0;6.908134460E-1;4.881349182E-1;1.826861023E1;1.828818249E1
9.368873000E0;-1.761985931E0;-1.625918884E0;3.978726196E0;4.645263048E0
9.378852000E0;-4.571493530E-1;-1.261576538E0;9.139244843E0;9.237226704E0
9.388832000E0;2.194885712E0;4.842430115E-1;1.502081406E1;1.518805022E1
9.398811000E0;6.842271423E-1;-1.842668152E-1;6.797065430E0;6.833902216E0
9.408791000E0;-6.090834045E-1;-1.454076233E0;9.294322357E0;9.427075282E0
9.418770000E0;-4.168830872E-1;-6.709048462E-1;1.223570572E1;1.226117447E1
9.428750000E0;3.833528137E-1;6.732998657E-1;8.959468689E0;8.992906720E0
9.438729000E0;-4.061054993E-1;-4.477189636E-1;9.316625977E0;9.336214090E0
9.448709000E0;4.131408691E-2;4.718188477E-1;1.018032990E1;1.019134126E1
9.458688000E0;-1.140478363E0;6.239025879E-1;8.771459656E0;8.867268454E0
9.468668000E0;-1.254241791E0;-1.178050232E-1;1.034139496E1;1.041784288E1
9.478648000E0;-3.754193115E-1;3.269201660E-1;9.190288696E0;9.203761338E0
9.488627000E0;-5.824388123E-1;5.737568665E-1;8.654103699E0;8.692637272E0
9.498607000E0;-1.917512512E-1;3.665876770E-1;1.100047440E1;1.100825109E1
9.508586000E0;-5.613327026E-1;-2.406994629E-1;9.083261261E0;9.103772063E0
9.518566000E0;-4.176315308E-1;-5.830375671E-1;9.953401794E0;9.979206190E0
9.528545000E0;-1.918560333E0;-2.070644073E0;1.361718292E1;1.390669304E1
9.538525000E0;-6.511459351E-1;-6.554869080E-1;1.054048096E1;1.058089755E1
9.548504000E0;1.628164215E0;7.105723572E-1;3.758833466E0;4.157482508E0
9.558484000E0;1.017883301E0;2.101629639E-1;1.178648987E1;1.183222711E1
9.568463000E0;-1.634600830E-1;-1.256786499E0;7.984246674E0;8.084208461E0
9.578443000E0;2.050735474E-2;1.087338867E0;1.250080444E1;1.254802128E1
9.588422000E0;-3.123404846E0;-3.165916443E-1;1.346794327E1;1.382900517E1
9.598402000E0;-4.808001709E-1;1.173559570E-1;6.643335114E0;6.661744716E0
9.608381000E0;1.859133911E-1;-7.027885437E-1;4.299509125E0;4.360533710E0
9.618361000E0;1.037193146E0;1.483415222E0;1.404768768E1;1.416382080E1
9.628340000E0;-1.288520508E0;1.514101410E0;1.028361511E1;1.047404067E1
9.638320000E0;-1.463656311E0;-1.063987427E0;1.001312759E1;1.017531735E1
9.648299000E0;-7.252418518E-1;-1.248254242E0;6.813980255E0;6.965230887E0
9.658279000E0;5.478607178E-1;1.532064056E0;9.623188477E0;9.759770904E0
9.668258000E0;4.041595459E-3;9.596543884E-1;1.263238083E1;1.266878046E1
9.678238000E0;-1.148112488E-1;-2.435435486E-1;9.443711700E0;9.447549194E0
9.688217000E0;-4.414320374E-1;-1.598675537E0;7.075636139E0;7.267410301E0
9.698197000E0;1.395098877E-1;4.673281860E-1;1.161584473E1;1.162607876E1
9.708176000E0;-1.275796967E0;7.782316589E-1;1.015817596E1;1.026751388E1
9.718156000E0;-7.285350037E-1;-7.896080017E-1;8.914711761E0;8.979216549E0
9.728135000E0;1.446142731E0;1.142873383E0;9.616901550E0;9.791949949E0
9.738115000E0;1.422791290E0;2.218686218E0;9.520052948E0;9.878173501E0
9.748094000E0;-9.156459045E-1;-3.776646423E-1;1.104313568E1;1.108746516E1
9.758074000E0;-1.286724243E0;-1.921703796E0;9.565708008E0;9.841309590E0
9.768054000E0;5.284011841E-1;3.760180664E-1;7.500901794E0;7.528886048E0
9.778033000E0;1.383572845E0;1.005758514E0;1.228914459E1;1.240761455E1
9.788013000E0;1.300196228E0;6.147715759E-1;1.008587631E1;1.018790240E1
9.797992000E0;6.027964783E-1;-1.344204712E-1;6.687642975E0;6.716100134E0
9.807972000E0;-2.168839874E0;-2.718197479E0;1.377839767E1;1.421044357E1
9.817951000E0;-4.709207153E-1;7.394622803E-1;1.120929016E1;1.124352065E1
9.827931000E0;-1.207239532E0;4.607418823E-1;5.513933716E0;5.663318408E0
9.837910000E0;2.058818665E0;4.361929321E-1;1.649719391E1;1.663088709E1
9.847890000E0;8.825646973E-1;9.178912354E-1;2.445314941E0;2.756992914E0
9.857869000E0;-1.038839722E0;3.739224243E-1;1.056428146E1;1.062181947E1
9.867849000E0;-2.139051819E0;-1.947150879E0;1.070304291E1;1.108702245E1
9.877828000E0;-4.963677979E-1;4.546046448E-1;7.133565674E0;7.165249863E0
9.887808000E0;1.123264160E0;8.913963318E-1;1.089404572E1;1.098801810E1
9.897787000E0;1.051114197E0;4.616400146E-1;1.036115387E1;1.042456052E1
9.907767000E0;-6.276448059E-1;-8.300239563E-1;7.776029663E0;7.845349902E0
9.917746000E0;-3.201841736E-1;-1.779050446E0;1.437056625E1;1.448380864E1
9.927726000E0;1.034349060E0;-1.237925720E-1;8.777297516E0;8.838900059E0
9.937705000E0;3.851490784E-1;6.649172974E-1;8.211773529E0;8.247646896E0
9.947685000E0;-6.506968689E-1;9.719288635E-1;1.173185349E1;1.179001435E1
9.957664000E0;-4.710704041E-1;7.668553162E-1;8.722661133E0;8.768967536E0
9.967644000E0;-8.361611938E-1;-6.637197876E-1;8.480165405E0;8.547098619E0
9.977623000E0;-6.406677246E-2;1.832189941E-1;9.946516113E0;9.948409749E0
9.987603000E0;-1.489402771E-1;5.532495117E-1;9.262438660E0;9.280142141E0
9.997582000E0;1.695973206E-1;-2.478845215E-1;1.093580887E1;1.093993261E1
1.000756200E1;-9.505233765E-2;-1.105301514E0;8.645272064E0;8.716160591E0
1.001754100E1;3.881428528E-1;-1.024619293E0;1.004441254E1;1.010399539E1
1.002752100E1;1.273102570E0;-6.719526672E-1;1.318278625E1;1.326115244E1
1.003750000E1;-3.272195435E-1;-4.284091187E-1;7.444618835E0;7.464111240E0
1.004748000E1;-1.327439575E0;-1.683998108E-1;9.520202637E0;9.613777227E0
1.005745900E1;-1.154848480E0;1.664538574E-1;1.087413712E1;1.093655521E1
1.006743900E1;-4.246669006E-1;1.089135132E0;8.177943878E0;8.261072775E0
1.007741900E1;-2.018253021E0;-1.314117279E0;1.192734695E1;1.216806701E1
1.008739800E1;5.448669434E-2;1.121467896E0;8.351433105E0;8.426570711E0
1.009737800E1;3.622467041E-2;-2.483335876E-1;7.729326782E0;7.733399919E0
1.010735700E1;-5.209167480E-1;1.195563812E0;1.435948929E1;1.441858730E1
1.011733700E1;-2.599194946E0;-2.441423035E-1;6.691534882E0;7.182761231E0
1.012731600E1;-2.278262329E-1;-8.674461365E-1;8.572822723E0;8.619608868E0
1.013729600E1;8.943901062E-1;2.481838989E-1;1.374426865E1;1.377557438E1
1.014727500E1;7.655081177E-1;-2.781216431E-1;9.091943207E0;9.128350651E0
1.015725500E1;-7.071295166E-1;2.252815247E-1;6.545438690E0;6.587378201E0
1.016723400E1;-7.963439941E-1;-5.736071777E-1;1.255214767E1;1.259045671E1
1.017721400E1;-1.594184875E-1;1.173858948E0;9.693691864E0;9.765808775E0
1.018719300E1;5.360353088E-1;5.607339478E-1;9.589658203E0;9.620982323E0
1.019717300E1;-2.314187622E-1;-1.369651794E-1;7.834258575E0;7.838872466E0
1.020715200E1;-6.764433289E-1;1.419049072E-1;9.558223572E0;9.583180601E0
1.021713200E1;-3.505709839E-1;2.210902405E-1;1.207479034E1;1.208190145E1
1.022711100E1;6.809339905E-1;1.092727661E-1;8.130492554E0;8.159688769E0
1.023709100E1;1.212478638E0;-8.961863708E-1;8.431217194E0;8.564968057E0
1.024707000E1;1.317859497E0;1.393601990E-1;1.254496262E1;1.261476365E1
1.025705000E1;-1.427132263E0;6.587800598E-1;1.153142029E1;1.163805617E1
1.026702900E1;-1.386566620E0;-2.912942505E-1;9.247469788E0;9.355379030E0
1.027700892E1;-9.216334534E-1;5.056484985E-1;5.825585632E0;5.919673689E0
1.028698792E1;-5.186714172E-1;2.092498627E0;1.027643005E1;1.050012310E1
1.029696792E1;7.451504517E-1;3.151995392E0;1.292292664E1;1.332262575E1
1.030694692E1;-1.258732452E0;5.415737915E-1;5.747747498E0;5.908833290E0
1.031692692E1;-2.142045593E0;-8.945397949E-1;9.418563995E0;9.700407646E0
1.032690592E1;-2.697390747E-1;-2.993774414E-2;1.009470795E1;1.009835551E1
1.033688592E1;2.719694366E0;1.273401947E0;1.497441055E1;1.527256564E1
1.034686492E1;1.924996948E-1;-5.637277222E-1;8.002209320E0;8.024350384E0
1.035684492E1;-1.232237549E0;-5.589376831E-1;8.803343353E0;8.906720772E0
1.036682392E1;-1.553020477E0;6.156697083E-1;1.127545258E1;1.139854169E1
1.037680392E1;-7.334747314E-2;7.652087402E-1;9.025481415E0;9.058158700E0
1.038678392E1;-6.481521606E-1;-6.280938721E-1;9.307944031E0;9.351600142E0
1.039676292E1;-1.471889191E0;-9.229806519E-1;1.069960007E1;1.083973213E1
1.040674292E1;-3.930825806E-1;9.830058289E-1;7.978857880E0;8.048787948E0
1.041672192E1;7.569758606E-1;2.399510193E-1;1.070468948E1;1.073410294E1
1.042670192E1;2.438728638E0;-5.340893555E-1;1.045411057E1;1.074807315E1
1.043668092E1;-3.481759644E-1;-5.656736755E-1;9.543554077E0;9.566641920E0
1.044666092E1;-2.907553711E0;1.908531189E-1;8.277486877E0;8.775367941E0
1.045663992E1;1.056053925E0;1.049467621E0;1.322140594E1;1.330496927E1
1.046661992E1;2.514471130E0;1.517843628E0;8.715775452E0;9.197345055E0
1.047659892E1;4.661306763E-1;-1.097368011E0;7.016509094E0;7.117084672E0
1.048657892E1;-1.811832275E0;-2.651436310E0;1.318697754E1;1.357237000E1
1.049655792E1;-2.278561707E0;-8.327183533E-1;7.565118256E0;7.944575352E0
1.050653792E1;-9.723779297E-1;1.710942078E-1;1.126422592E1;1.130741251E1
1.051651692E1;6.179150391E-1;-5.068460083E-1;8.830137634E0;8.866230457E0
1.052649692E1;5.719606018E-1;-1.536704407E0;9.122479706E0;9.268669556E0
1.053647592E1;-4.731660461E-1;-2.103126526E0;1.181567917E1;1.201071611E1
1.054645592E1;-1.273102570E0;-1.468146973E0;7.320227509E0;7.573768973E0
1.055643492E1;-4.191284180E-3;-6.604266357E-1;1.164907562E1;1.166778230E1
1.056641492E1;3.333567810E-1;-7.738906860E-2;8.998986511E0;9.005491327E0
1.057639392E1;1.448986816E-1;-2.240840149E-1;1.001028351E1;1.001383968E1
1.058637392E1;-5.137316895E-1;-1.053359528E0;9.637857971E0;9.708851261E0
1.059635292E1;-2.303709412E-1;-8.412506104E-1;9.595945129E0;9.635503946E0
1.060633292E1;-5.583389282E-2;-5.300477600E-1;1.027403503E1;1.028785031E1
1.061631192E1;1.811233521E-2;1.930984497E-2;9.906698914E0;9.906734290E0
1.062629192E1;-3.858975220E-1;-7.963439941E-2;9.235494690E0;9.243896403E0
1.063627092E1;1.194515991E-1;-4.490661621E-4;9.943971405E0;9.944688843E0
1.064625092E1;4.438270569E-1;-1.811233521E-1;8.600365448E0;8.613714295E0
1.065622992E1;3.234773254E-1;-7.210505676E-1;1.098041611E1;1.100881871E1
1.066620992E1;-9.157955933E-1;-4.680766296E-1;1.167661835E1;1.172182551E1
1.067618892E1;1.558858337E0;4.716691589E-1;1.081471069E1;1.093665756E1
1.068616892E1;-1.247056732E0;-3.903881836E-1;4.784500580E0;4.959737818E0
1.069614792E1;-1.220561829E0;1.195114746E0;1.281634827E1;1.292968883E1
1.070612792E1;-8.280780029E-1;5.034031677E-1;9.402996368E0;9.452802158E0
1.071610792E1;-7.077282715E-1;-7.144642639E-1;8.371641083E0;8.431827377E0
1.072608692E1;6.221063232E-1;-2.054627380E0;1.030861313E1;1.052976802E1
1.073606692E1;-1.251397705E-1;-1.440604248E0;9.498198395E0;9.607641402E0
1.074604592E1;-4.680766296E-1;1.846560059E0;1.407882294E1;1.420711565E1
1.075602592E1;-1.542542267E0;1.205742645E0;3.752845917E0;4.232860079E0
1.076600492E1;2.923420715E-1;7.704478455E-1;1.234123627E1;1.236871725E1
1.077598492E1;-6.988966370E-1;-2.204166412E0;1.085348007E1;1.109706429E1
1.078596392E1;-2.135159912E0;-3.418890381E-1;5.628295898E0;6.029387256E0
1.079594392E1;-3.320095825E-1;1.450633392E0;1.603585327E1;1.610475575E1
1.080592292E1;1.682950287E0;1.430126038E0;7.009174347E0;7.348884757E0
1.081590292E1;9.484277344E-1;-2.149530029E-1;1.156090897E1;1.160173849E1
1.082588192E1;-1.900148621E0;-9.120533752E-1;6.204896851E0;6.553102400E0
1.083586192E1;-2.016307068E0;-1.198856964E0;1.100167191E1;1.124897937E1
1.084584092E1;-3.320095825E-1;6.346801758E-1;1.009530670E1;1.012068509E1
1.085582092E1;5.104385376E-1;4.239184570E-1;1.001537292E1;1.003732779E1
1.086579992E1;-4.562512207E-1;-4.602928162E-1;9.082961884E0;9.106054647E0
1.087577992E1;-4.296066284E-1;-2.993774414E-2;9.348210297E0;9.358124485E0
1.088575892E1;2.724334717E-1;-4.294569397E-1;1.150028503E1;1.151152506E1
1.089573892E1;-4.888833618E-1;-2.016307068E-1;7.678133240E0;7.696323274E0
1.090571792E1;-2.797682190E-1;2.212399292E-1;1.030621811E1;1.031238814E1
1.091569792E1;3.888912964E-1;-3.695814514E-1;1.084180435E1;1.085507017E1
1.092567692E1;-2.002835083E-1;-5.876779175E-1;8.731343079E0;8.753389673E0
1.093565692E1;1.978884888E-1;1.853146362E-1;9.912237396E0;9.915944310E0
1.094563592E1;4.546046448E-1;2.043251038E-1;1.058957886E1;1.060130155E1
1.095561592E1;-5.239105225E-3;-3.026705933E-1;9.354497223E0;9.359393956E0
1.096559492E1;-1.823208618E-1;1.841171265E-2;9.436526642E0;9.438305725E0
1.097557492E1;-1.643582153E-1;-9.131011963E-3;9.730664978E0;9.732057229E0
1.098555492E1;-1.070274353E-1;-2.854563904E-1;9.885143738E0;9.889843626E0
1.099553392E1;5.866300964E-1;-1.886077881E-2;1.033046768E1;1.034712777E1
1.100551392E1;3.414399719E-1;2.477348328E-1;9.576036530E0;9.585323647E0
1.101549292E1;-4.496649170E-1;2.553689575E-1;8.956624603E0;8.971540343E0
1.102547292E1;-5.179229736E-2;5.008584595E-1;8.978479156E0;8.992587481E0
1.103545192E1;-1.374292145E0;-8.039781189E-1;1.174592422E1;1.185334533E1
1.104543192E1;-1.698966980E-1;4.966671753E-1;1.025697052E1;1.027039373E1
1.105541092E1;3.963757324E-1;1.486408997E-1;8.342451782E0;8.353185595E0
1.106539092E1;1.158740387E0;5.715115356E-1;9.984537048E0;1.006778450E1
1.107536992E1;-1.390608215E-1;1.056802368E-1;8.843310242E0;8.845034893E0
1.108534992E1;6.990463257E-2;4.522096252E-1;1.042926224E1;1.043929552E1
1.109532892E1;6.491999817E-1;-1.046623535E0;9.631571045E0;9.709997025E0
1.110530892E1;-1.763333130E-1;-2.396516418E-1;9.902956696E0;9.907425380E0
1.111528792E1;9.101074219E-2;2.193837891E0;1.429317719E1;1.446084789E1
1.112526792E1;2.133064270E-1;2.293231201E-1;1.083357147E1;1.083809760E1
1.113524692E1;-9.665400696E-1;5.536985779E-1;5.453908539E0;5.566498017E0
1.114522692E1;-3.074606323E-1;-9.379495239E-1;1.001193008E1;1.006046845E1
1.115520592E1;6.652166748E-1;2.014510803E0;9.025481415E0;9.271465999E0
1.116518592E1;-4.610412598E-1;1.779798889E0;1.031370255E1;1.047629244E1
1.117516492E1;-8.734336853E-1;-1.034947815E0;1.007300308E1;1.016363097E1
1.118514492E1;-4.819976807E-1;-1.304237823E0;7.555089111E0;7.681974326E0
1.119512392E1;1.941462708E-1;9.325607300E-1;1.020398071E1;1.024834546E1
1.120510392E1;5.891748047E-1;1.975891113E-2;1.040800644E1;1.042468778E1
1.121508292E1;3.474275208E-1;-3.998185730E-1;9.661359100E0;9.675867942E0
1.122506292E1;1.197509766E-2;-4.790039062E-1;8.969797211E0;8.982585939E0
1.123504192E1;-1.073118439E0;-1.871558075E0;1.086291046E1;1.107506824E1
1.124502192E1;-1.856140137E-1;-5.777984619E-2;1.229124023E1;1.229277746E1
1.125500092E1;5.843847656E-1;1.657054138E-1;9.911039886E0;9.929636220E0
1.126498092E1;7.012916565E-1;-3.749702454E-1;8.195158081E0;8.233652206E0
1.127496025E1;-3.124003601E-1;-1.565744019E-1;8.993747406E0;9.000533425E0
1.128494025E1;-9.720785522E-1;5.819897461E-1;9.807155914E0;9.872383497E0
1.129492025E1;-2.655477905E-1;-1.848655701E-1;1.070199509E1;1.070688516E1
1.130489925E1;-6.001020813E-1;-1.175056458E-1;9.418414307E0;9.438244441E0
1.131487925E1;-1.114582214E0;-2.300715637E-1;8.974587250E0;9.046460233E0
1.132485825E1;-2.755769348E-1;-2.713856506E-1;9.162596283E0;9.170755883E0
1.133483825E1;-7.277865601E-1;-6.969506836E-1;7.628436584E0;7.694703260E0
1.134481725E1;-7.987390137E-1;-5.291496277E-1;8.646619263E0;8.699540678E0
1.135479725E1;1.195264435E0;1.547481995E0;1.232521957E1;1.247935876E1
1.136477625E1;-8.837622070E-1;-1.571581879E0;1.205413330E1;1.218823346E1
1.137475625E1;-5.144801331E-1;3.861968994E-2;9.169481964E0;9.183985016E0
1.138473525E1;-1.049317932E0;-1.453327789E0;7.481591949E0;7.693337890E0
1.139471525E1;4.296066284E-1;-1.194515991E-1;1.064017365E1;1.064951293E1
1.140469425E1;-1.034349060E-1;8.425978088E-1;9.980645142E0;1.001668345E1
1.141467425E1;-4.348457336E-1;-9.714797974E-2;1.153052216E1;1.153912777E1
1.142465325E1;-5.845344543E-1;-8.402027893E-1;1.008587631E1;1.013767835E1
1.143463325E1;-8.442443848E-2;-3.540138245E-1;9.434580688E0;9.441597642E0
1.144461225E1;1.583706665E-1;1.775308228E-1;1.067130890E1;1.067396047E1
1.145459225E1;-5.313949585E-1;-2.300715637E-1;9.898316345E0;9.915239785E0
1.146457125E1;-8.232879639E-1;-4.116439819E-1;9.271419983E0;9.316999643E0
1.147455125E1;-1.232985992E0;-9.080117798E-1;5.651198273E0;5.854979229E0
1.148453025E1;-6.336323547E-1;-1.392105103E-2;1.302501434E1;1.304042493E1
1.149451025E1;3.191363525E-1;1.194815369E0;1.064107178E1;1.071269529E1
1.150448925E1;1.663041687E-1;7.240443420E-1;8.813372498E0;8.844627299E0
1.151446925E1;-7.649093628E-1;-4.463717651E-1;8.987610168E0;9.031138944E0
1.152444825E1;-6.237528992E-1;-1.035097504E0;8.715326385E0;8.798716300E0
1.153442825E1;5.908213806E-1;5.284011841E-1;1.274853928E1;1.277315667E1
1.154440725E1;-3.197351074E-1;-1.649869080E0;9.088650055E0;9.242719207E0
1.155438725E1;2.944377136E-1;7.529342651E-2;9.537865906E0;9.542706571E0
1.156436625E1;-1.202000427E-1;7.982899475E-1;1.033001862E1;1.036151531E1
1.157434625E1;-8.397537231E-2;-1.996847534E-1;1.046204407E1;1.046428650E1
1.158432525E1;-3.588038635E-1;-2.119592285E-1;8.894653473E0;8.904410555E0
1.159430525E1;-7.708969116E-2;-2.424957275E-1;9.218879242E0;9.222390226E0
1.160428525E1;-3.323089600E-2;1.228944397E-1;9.632469177E0;9.633310427E0
1.161426425E1;-2.401007080E-1;-4.090992737E-1;1.000309845E1;1.001433918E1
1.162424425E1;1.493893433E-1;1.616638184E-1;1.001911514E1;1.002153285E1
1.163422325E1;2.896476746E-1;-1.963916016E-1;9.633666687E0;9.640020709E0
1.164420325E1;9.358538818E-1;5.358856201E-2;1.032837204E1;1.037082269E1
1.165418225E1;2.028282166E-1;4.475692749E-2;8.269703064E0;8.272311118E0
1.166416225E1;6.316864014E-1;6.596781921E-1;1.026280838E1;1.030337027E1
1.167414125E1;1.158590698E0;8.482859802E-1;1.051263885E1;1.061025434E1
1.168412125E1;-1.885479126E0;-1.518592072E0;9.434431000E0;9.740104810E0
1.169410025E1;-7.857160950E-1;7.867639160E-1;1.007554779E1;1.013671596E1
1.170408025E1;-2.007325745E-1;7.854167175E-1;9.814490662E0;9.847913481E0
1.171405925E1;1.086740112E-1;8.463400269E-1;8.977431335E0;9.017891930E0
1.172403925E1;7.559280396E-2;7.186555481E-1;9.942923584E0;9.969147881E0
1.173401825E1;-3.576063538E-1;2.264790344E-1;1.004740631E1;1.005631884E1
1.174399825E1;-3.255729675E-1;-6.310876465E-1;9.123527527E0;9.151121456E0
1.175397725E1;-5.295986938E-1;4.685256958E-1;1.020188507E1;1.022636055E1
1.176395725E1;-1.996248779E0;2.088157654E-1;9.182804260E0;9.399601443E0
1.177393625E1;1.070274353E0;1.734892273E0;1.307201660E1;1.323000213E1
1.178391625E1;6.225553894E-1;1.309626617E0;7.004084930E0;7.152615102E0
1.179389525E1;-4.546046448E-1;7.949967957E-1;8.148006134E0;8.199310291E0
1.180387525E1;-3.897894287E-1;-9.958790588E-1;1.158411072E1;1.163337148E1
1.181385425E1;6.331832886E-2;-5.905220032E-1;9.459429016E0;9.478054798E0
1.182383425E1;-7.469467163E-2;1.309027863E0;9.376202087E0;9.467433592E0
1.183381325E1;6.421646118E-1;1.117426300E0;1.090856552E1;1.098443529E1
1.184379325E1;-1.769320679E-1;1.526824951E-1;9.220525818E0;9.223487044E0
1.185377225E1;-1.851649475E-1;4.067042542E-1;9.696236572E0;9.706528631E0
1.186375225E1;1.149609375E-1;-1.851649475E-1;9.454788666E0;9.457300396E0
1.187373125E1;2.404000854E-1;5.245092773E-1;9.505084076E0;9.522579770E0
1.188371125E1;5.977070618E-1;2.127076721E-1;1.061906754E1;1.063800233E1
1.189369025E1;3.742218018E-1;-3.613485718E-1;9.742191010E0;9.756069927E0
1.190367025E1;-5.463638306E-2;2.263293457E-1;9.585616608E0;9.588443870E0
1.191364925E1;-9.969268799E-2;2.228865051E-1;9.610764313E0;9.613865388E0
1.192362925E1;1.341210938E-1;6.189628601E-1;9.699978790E0;9.720632285E0
1.193360925E1;2.201921082E-1;1.095721436E-1;9.661359100E0;9.664489137E0
1.194358825E1;2.556683350E-1;-2.653981018E-1;9.960886230E0;9.967700685E0
1.195356825E1;-2.022294617E-1;-4.153862000E-1;1.020398071E1;1.021443414E1
1.196354725E1;-8.569679260E-1;4.260140991E-1;9.460027771E0;9.508312546E0
1.197352725E1;3.393443298E-1;5.716612244E-1;1.006956024E1;1.009148129E1
1.198350625E1;-4.698728943E-1;1.384620667E-1;6.883286133E0;6.900694187E0
1.199348625E1;-4.111949158E-1;-3.400927734E-1;1.075767929E1;1.077090563E1
1.200346525E1;2.347568207E0;5.366340637E-1;1.339609268E1;1.361081745E1
1.201344525E1;-4.779560852E-1;4.345463562E-1;6.529421997E0;6.561297446E0
1.202342425E1;2.588117981E-1;-5.689668274E-1;1.226684097E1;1.228275597E1
1.203340425E1;-9.526190186E-1;5.134323120E-2;1.018467087E1;1.022925412E1
1.204338325E1;-1.405128021E0;-1.077309723E0;7.257657623E0;7.470513715E0
1.205336325E1;2.619552612E-2;2.138153687E0;1.075767929E1;1.096813800E1
1.206334225E1;6.930587769E-2;9.183403015E-1;9.546248474E0;9.590568917E0
1.207332225E1;-4.808001709E-1;-1.358574829E0;9.087003479E0;9.200572080E0
1.208330125E1;2.200274506E0;-1.284927979E0;1.381746643E1;1.405043154E1
1.209328125E1;-5.294490051E-1;1.593137054E0;6.794071655E0;6.998414933E0
1.210326025E1;-1.914818115E0;2.144590302E0;9.920470276E0;1.032867496E1
1.211324025E1;-7.541317749E-1;1.711690521E0;1.167931274E1;1.182814209E1
1.212321925E1;-4.929249573E-1;-1.243314514E0;7.011868744E0;7.138284757E0
1.213319925E1;1.040486298E0;-1.438508606E-1;1.155372391E1;1.160137237E1
1.214317825E1;-3.841012573E-1;-1.213825836E0;8.800499268E0;8.892114163E0
1.215315825E1;-3.369493103E-1;-1.230441284E-1;9.460177460E0;9.466975877E0
1.216313725E1;-3.800596619E-1;2.510279846E-1;1.084419937E1;1.085376066E1
1.217311725E1;-8.298742676E-1;4.658312988E-1;9.430239716E0;9.478138593E0
1.218309625E1;-5.078938293E-1;1.047371979E0;9.198371887E0;9.271730668E0
1.219307625E1;-1.886077881E-1;2.885998535E-1;1.045530807E1;1.046099086E1
1.220305525E1;-2.005828857E-1;-3.667373657E-2;9.684860229E0;9.687006561E0
1.221303525E1;-4.793032837E-1;-2.195933533E-1;9.109905853E0;9.125148631E0
1.222301425E1;-2.095642090E-3;-5.813909912E-1;1.103789658E1;1.105319776E1
1.223299425E1;-3.367996216E-2;-5.400769043E-1;9.368717651E0;9.384332040E0
1.224297425E1;-9.505233765E-2;-2.872526550E-1;9.759105835E0;9.763795150E0
1.225295325E1;-3.218307495E-1;9.846524048E-1;9.645192719E0;9.700662759E0
1.226293325E1;-6.424639893E-1;5.676196289E-1;9.349108429E0;9.388332144E0
1.227291225E1;-5.837860107E-3;1.790277100E-1;1.053060150E1;1.053212481E1
1.228289217E1;-2.113604736E-1;-1.080752563E0;9.522447968E0;9.585912301E0
1.229287117E1;-4.355941772E-2;-1.413809967E0;9.715396729E0;9.817825097E0
1.230285117E1;6.735992432E-2;-1.077609100E0;9.486971741E0;9.548215097E0
1.231283017E1;-1.628613281E-1;-4.653822327E-1;8.690178680E0;8.704154751E0
1.232281017E1;3.763174438E-1;8.988807678E-1;7.987240448E0;8.046465772E0
1.233278917E1;-6.357279968E-1;-2.541714478E0;1.440215057E1;1.463852464E1
1.234276917E1;1.079255676E-1;-2.108215942E0;9.968370667E0;1.018943748E1
1.235274817E1;-9.762698364E-1;-1.849703522E0;6.125112762E0;6.472365276E0
1.236272817E1;7.011419678E-1;-3.269351349E0;1.293609924E1;1.336124702E1
1.237270717E1;1.875599670E-1;-1.766925659E0;6.960525513E0;7.183740004E0
1.238268717E1;-1.087039490E0;-3.106190643E0;1.307755508E1;1.348527056E1
1.239266617E1;-6.360273743E-1;1.140777740E0;9.984237671E0;1.006930517E1
1.240264617E1;-2.412982178E-1;-1.277443542E0;9.147926788E0;9.239840440E0
1.241262517E1;-1.065184937E0;-4.628375244E-1;7.042854309E0;7.137971304E0
1.242260517E1;1.791773987E-1;-3.329226837E0;1.335298233E1;1.376292095E1
1.243258417E1;5.462141418E-1;-2.648592224E0;8.682694244E0;9.094095337E0
1.244256417E1;-2.161505127E-1;-3.080144806E0;8.690927124E0;9.223135440E0
1.245254317E1;7.379653931E-2;-3.498973846E0;1.123413849E1;1.176665337E1
1.246252317E1;9.026229858E-2;-2.745291138E0;9.408085785E0;9.800859597E0
1.247250217E1;-3.152444458E-1;-1.632355499E0;9.933044128E0;1.007121290E1
1.248248217E1;-1.532812500E-1;-1.546583862E0;1.022074585E1;1.033823305E1
1.249246117E1;3.951782227E-2;-2.208806763E0;9.437873840E0;9.692979501E0
1.250244117E1;3.608995056E-1;-1.620679779E0;9.420060883E0;9.565270432E0
1.251242017E1;9.849517822E-2;-2.582878876E0;1.023601410E1;1.055731733E1
1.252240017E1;-4.475692749E-2;-1.815574493E0;1.017673737E1;1.033751892E1
1.253237917E1;-2.040856018E0;-1.919907532E0;9.955946503E0;1.034272735E1
1.254235917E1;-1.238524475E0;2.220931549E0;8.427924042E0;8.803203024E0
1.255233817E1;2.088157654E0;6.475534058E-1;1.139864639E1;1.160641492E1
1.256231817E1;1.809137878E0;-8.824150085E-1;8.161328430E0;8.405885905E0
1.257229717E1;-5.755531311E-1;-1.477128296E0;1.025547363E1;1.037727849E1
1.258227717E1;-9.015751648E-1;1.191971283E0;1.341360626E1;1.349660944E1
1.259225717E1;-2.065704346E0;-6.071374512E-1;5.406906281E0;5.819826961E0
1.260223617E1;-2.072739716E0;2.121089172E-1;7.390281830E0;7.678379103E0
1.261221617E1;-9.978250122E-1;7.867639160E-1;1.112815887E1;1.120047196E1
1.262219517E1;1.305734711E0;3.034190369E-1;1.195803314E1;1.203293659E1
1.263217517E1;-1.175056458E-1;6.526428223E-1;8.720266113E0;8.745444032E0
1.264215417E1;-5.754034424E-1;6.192622375E-1;1.048629364E1;1.052031032E1
1.265213417E1;-2.490820312E-1;9.542655945E-1;9.501192169E0;9.552241481E0
1.266211317E1;3.833528137E-1;1.817370758E0;9.267977142E0;9.452258786E0
1.267209317E1;6.412664795E-1;1.763931885E0;1.040231827E1;1.057028400E1
1.268207217E1;-4.336482239E-1;1.755549316E0;8.931476898E0;9.112699039E0
1.269205217E1;1.496887207E-3;2.952460327E0;1.003692810E1;1.046216755E1
1.270203117E1;-3.953279114E-1;1.557211761E0;1.058688446E1;1.070809578E1
1.271201117E1;-1.687440948E0;1.343905334E0;7.715256042E0;8.011161857E0
1.272199017E1;-4.326004028E-1;2.614612885E0;1.288864792E1;1.315828974E1
1.273197017E1;1.049168243E0;1.023870850E0;9.433682556E0;9.546906938E0
1.274194917E1;-2.639012146E-1;1.400637360E0;6.979985046E0;7.124017133E0
1.275192917E1;-5.995033264E-1;2.846480713E0;1.146241379E1;1.182576790E1
1.276190817E1;-5.968089294E-1;5.697152710E-1;1.149923721E1;1.152879928E1
1.277188817E1;1.405427399E0;2.263892212E0;8.582103424E0;8.986263590E0
1.278186717E1;1.350341949E0;2.878813477E0;8.906478882E0;9.457079702E0
1.279184717E1;6.629713440E-1;1.816023560E0;1.123174347E1;1.139690896E1
1.280182617E1;-1.157243500E0;-9.089099121E-1;8.267308044E0;8.397244313E0
1.281180617E1;7.731422424E-1;1.561253357E0;1.055305481E1;1.069589766E1
1.282178517E1;9.728269958E-1;2.086511078E0;1.046803162E1;1.071819046E1
1.283176517E1;1.375639343E-1;1.342109070E0;8.549022217E0;8.654823017E0
1.284174417E1;5.448669434E-2;1.498234406E0;1.045755341E1;1.056447341E1
1.285172417E1;-4.456233215E-1;-1.565744019E-1;1.008737320E1;1.009842531E1
1.286170317E1;-5.089416504E-2;8.235873413E-1;8.878187714E0;8.916451279E0
1.287168317E1;4.270619202E-1;6.617738342E-1;9.961484985E0;9.992572722E0
1.288166217E1;6.936575317E-1;7.593708801E-1;1.098086517E1;1.102892583E1
1.289164217E1;6.960525513E-2;9.306147766E-1;8.862919464E0;8.911915068E0
1.290162117E1;9.385482788E-2;9.783654785E-1;9.298663330E0;9.350462420E0
1.291160117E1;7.740403748E-1;1.191671906E0;1.055095917E1;1.064621810E1
1.292158117E1;9.774673462E-1;1.138532410E0;8.687933350E0;8.816568740E0
1.293156017E1;2.636018372E-1;2.198927307E-1;9.987530823E0;9.993428375E0
1.294154017E1;-1.380130005E-1;-1.010099487E0;1.309731400E1;1.313693200E1
1.295151917E1;5.462141418E-1;2.860551453E-1;8.670419769E0;8.692315941E0
1.296149917E1;7.234455872E-1;-9.430389404E-2;8.187973022E0;8.220411727E0
1.297147817E1;1.135538635E0;1.167871399E0;9.790989532E0;9.925565355E0
1.298145817E1;8.391549683E-1;6.930587769E-2;9.901310120E0;9.937048176E0
1.299143717E1;-4.101470947E-1;-3.817062378E-1;7.670948181E0;7.691382599E0
1.300141717E1;-9.404942322E-1;-6.011499023E-1;1.358245514E1;1.362824267E1
1.301139617E1;1.469045105E0;1.970352631E0;1.039722885E1;1.068376108E1
1.302137617E1;1.772164764E0;8.815168762E-1;8.933123474E0;9.149772399E0
1.303135517E1;-6.348298645E-1;1.901046753E-1;6.893464966E0;6.925244254E0
1.304133517E1;-9.621990967E-1;4.504133606E-1;1.003932312E1;1.009538053E1
1.305131417E1;-7.530839539E-1;1.237476654E0;1.015667908E1;1.025946460E1
1.306129417E1;2.296224976E-1;1.339264984E0;1.034798126E1;1.043681337E1
1.307127317E1;6.084846497E-1;8.788224792E-1;9.022936707E0;9.086031550E0
1.308125317E1;2.050735474E-2;6.216572571E-1;1.062984512E1;1.064802731E1
1.309123217E1;-4.640350342E-2;-5.930667114E-1;1.050605255E1;1.052288086E1
1.310121217E1;3.350033569E-1;9.771679688E-1;8.845256195E0;8.905371505E0
1.311119117E1;2.329156494E-1;1.965712280E0;9.973609772E0;1.016814469E1
1.312117117E1;2.740800476E-1;1.818717957E0;1.037806870E1;1.053978960E1
1.313115017E1;-8.556207275E-1;1.283580780E0;8.781339111E0;8.915805238E0
1.314113017E1;-3.553610229E-1;8.863069153E-1;1.012674133E1;1.017166218E1
1.315110917E1;3.397933960E-2;6.370751953E-1;1.051697983E1;1.053631264E1
1.316108917E1;-4.558021545E-1;1.122665405E0;8.001760254E0;8.092978461E0
1.317106817E1;5.134323120E-2;1.479523315E0;1.073986633E1;1.084141846E1
1.318104817E1;-1.196012878E-1;1.138083344E0;9.911339264E0;9.977183178E0
1.319102717E1;-2.315684509E-1;1.323847046E0;8.957971802E0;9.058225751E0
1.320100717E1;5.318440247E-1;1.574425964E0;1.007689499E1;1.021300582E1
1.321098617E1;6.554869080E-1;9.623487854E-1;9.151818695E0;9.225592864E0
1.322096617E1;-5.839356995E-1;-2.092798004E0;1.244003082E1;1.262834713E1
1.323094517E1;1.525328064E-1;5.057981873E-1;1.031669632E1;1.033021399E1
1.324092517E1;-1.526974640E0;2.132315826E0;4.954696655E0;5.606018309E0
1.325090517E1;4.420307922E-1;4.106560364E0;1.232013016E1;1.299403080E1
1.326088417E1;-8.622070313E-1;1.378932495E0;1.006327332E1;1.019383763E1
1.327086417E1;-7.521858215E-1;-3.623963928E-1;7.499853973E0;7.546186075E0
1.328084225E1;2.392025757E-1;-8.113128662E-2;1.127874573E1;1.128157371E1
1.329082225E1;-1.078656921E0;1.084943848E0;8.813073120E0;8.944879078E0
1.330080125E1;1.231788483E0;2.450254669E0;1.400667297E1;1.427262900E1
1.331078125E1;7.318281555E-1;2.926713867E0;8.741222534E0;9.247172427E0
1.332076025E1;-4.230203247E-1;1.802102509E0;5.553152161E0;5.853547520E0
1.333074025E1;-1.303639069E0;-2.588117981E-1;1.307441162E1;1.314179202E1
1.334071925E1;-1.335223389E0;-1.337917786E0;7.772287445E0;7.998831016E0
1.335069925E1;5.625302124E-1;2.151326294E0;9.569001160E0;9.823972122E0
1.336067825E1;3.600013733E-1;2.714006195E0;1.215262848E1;1.245719911E1
1.337065825E1;-6.979985046E-1;7.053332520E-1;7.949369202E0;8.011065323E0
1.338063725E1;5.225633240E-1;3.272195435E-1;1.134745285E1;1.136419074E1
1.339061725E1;-8.155041504E-1;8.476872253E-1;8.513396301E0;8.594273514E0
1.340059625E1;3.691323853E-1;2.461930389E0;9.421707458E0;9.745046505E0
1.341057625E1;2.918930054E-1;3.078947296E0;1.012404694E1;1.058590782E1
1.342055525E1;-4.296066284E-2;1.541344757E0;1.049422714E1;1.060690306E1
1.343053525E1;-6.611750793E-1;-2.381547546E-1;1.010623398E1;1.013063845E1
1.344051425E1;-4.131408691E-1;-1.117276611E0;9.092991028E0;9.170685811E0
1.345049425E1;4.927752686E-1;1.580413513E0;9.237141266E0;9.384312074E0
1.346047325E1;9.011260986E-1;2.634371796E0;9.914782104E0;1.029829341E1
1.347045325E1;8.400531006E-1;2.728376312E0;9.429790649E0;9.852445291E0
1.348043225E1;-8.562194824E-2;1.517544250E0;1.099568436E1;1.110024081E1
1.349041225E1;-1.370998993E0;-6.776408386E-1;9.184450836E0;9.310906106E0
1.350039125E1;-2.555186462E-1;-6.851252747E-1;9.871522064E0;9.898567284E0
1.351037125E1;8.957373047E-1;5.516029358E-1;9.861343231E0;9.917293050E0
1.352035025E1;8.979826355E-1;2.339485016E0;8.868457947E0;9.215699068E0
1.353033025E1;1.091530151E0;2.004481659E0;1.029244675E1;1.054247812E1
1.354030925E1;5.119354248E-2;1.105600891E0;9.975855103E0;1.003706427E1
1.355028925E1;-1.081800385E0;-2.080673218E-2;9.857002258E0;9.916209886E0
1.356026825E1;-2.736309814E-1;-6.176156616E-1;9.678573303E0;9.702118542E0
1.357024825E1;4.782554626E-1;-2.412982178E-1;9.711804199E0;9.726566399E0
1.358022725E1;7.496411133E-1;6.550378418E-1;9.690398712E0;9.741399467E0
1.359020725E1;6.307882690E-1;1.105451202E0;9.871372375E0;9.953085390E0
1.360018625E1;-2.368075562E-1;9.330097961E-1;9.880353699E0;9.927133237E0
1.361016625E1;-3.832031250E-1;3.246748352E-1;1.001028351E1;1.002287555E1
1.362014625E1;1.841171265E-2;-2.269281006E-1;9.611213379E0;9.613909609E0
1.363012525E1;3.950285339E-1;-1.275347900E-1;9.631870422E0;9.640811195E0
1.364010525E1;3.216810608E-1;-2.814147949E-2;9.866133270E0;9.871416127E0
1.365008425E1;2.222877502E-1;1.960922241E-2;9.575288086E0;9.577887987E0
1.366006425E1;3.984713745E-1;3.290158081E-1;9.834998016E0;9.848564201E0
1.367004325E1;2.365081787E-1;1.995350647E-1;9.646839294E0;9.651800803E0
1.368002325E1;-6.274951172E-1;-1.365460510E0;1.007824219E1;1.018966133E1
1.369000225E1;-2.267784119E-1;1.332678680E0;9.413923645E0;9.510489961E0
1.369998225E1;3.164419556E-1;1.760788422E0;1.076351715E1;1.091117834E1
1.370996125E1;6.354286194E-1;6.351292419E-1;9.858648834E0;9.899500771E0
1.371994125E1;-5.239105225E-3;-7.557783508E-1;9.488618317E0;9.518671437E0
1.372992025E1;-3.742218018E-2;-1.691781921E0;9.283694458E0;9.436657739E0
1.373990025E1;3.037184143E-1;-1.091230774E-1;9.539063416E0;9.544521128E0
1.374987925E1;7.262896729E-1;7.146139526E-1;9.422755280E0;9.477683623E0
1.375985925E1;7.309300232E-1;9.297166443E-1;1.014724869E1;1.021593303E1
1.376983825E1;-9.083111572E-1;3.218307495E-2;8.710686035E0;8.757974430E0
1.377981825E1;3.661386108E-1;-1.654359741E0;1.301468582E1;1.312451945E1
1.378979725E1;6.509962463E-1;-1.425186310E0;9.429341583E0;9.558631430E0
1.379977725E1;-8.087681580E-1;-3.870950317E-1;6.633156281E0;6.693482706E0
1.380975625E1;1.884580994E0;1.985920258E0;1.135418884E1;1.167960312E1
1.381973625E1;8.729846191E-1;-7.229965210E-1;1.092353439E1;1.098218693E1
1.382971525E1;-8.372090149E-1;-9.892927551E-1;8.816515961E0;8.911261009E0
1.383969525E1;-1.235231323E0;-1.310075684E0;1.076651093E1;1.091603647E1
1.384967425E1;1.062789917E-2;-3.017724609E-1;8.920699310E0;8.925808409E0
1.385965425E1;1.038390656E0;1.143621826E0;9.852062531E0;9.972425088E0
1.386963325E1;7.908055115E-1;4.101470947E-2;9.950108643E0;9.981568893E0
1.387961325E1;1.137634277E-2;-1.040635986E0;9.930948486E0;9.985328764E0
1.388959225E1;-5.619314575E-1;-2.010918274E0;8.857680359E0;9.100442880E0
1.389957225E1;-8.083190918E-2;-1.429976349E0;9.962383118E0;1.006481215E1
1.390955125E1;1.610950012E0;1.586101685E0;1.202644089E1;1.223708131E1
1.391953125E1;7.523355103E-1;1.977088623E0;8.806935883E0;9.057428321E0
1.392951025E1;3.293151855E-3;2.251468048E0;8.948840790E0;9.227722942E0
1.393949025E1;-9.119036865E-1;-6.882687378E-1;1.083372116E1;1.089379623E1
1.394946925E1;-8.044271851E-1;-2.549498291E0;8.331823883E0;8.750219074E0
1.395944925E1;2.754272461E-1;-2.057621155E0;1.040815613E1;1.061317007E1
1.396942825E1;6.203100586E-1;-3.454815674E-1;9.615554352E0;9.641733639E0
1.397940825E1;1.394051056E0;2.209405518E-1;9.834399261E0;9.935169949E0
1.398938825E1;7.994874573E-1;5.568420410E-1;1.062565384E1;1.067022834E1
1.399936725E1;-8.446934509E-1;6.137237549E-1;8.816515961E0;8.878125791E0
1.400934725E1;-4.360432434E-1;3.496728516E-1;1.001746857E1;1.003304945E1
1.401932625E1;3.143463135E-3;-5.351371765E-1;9.764344940E0;9.778998609E0
1.402930625E1;8.875044250E-1;-4.742138672E-1;1.012404694E1;1.017393087E1
1.403928525E1;5.043013000E-1;-9.262738037E-1;1.000100281E1;1.005645863E1
1.404926525E1;4.397854614E-1;-1.412612457E0;9.277407532E0;9.394635475E0
1.405924425E1;6.122268677E-2;5.179229736E-2;9.683213654E0;9.683545700E0
1.406922425E1;-6.197113037E-2;1.298849030E0;9.611512756E0;9.699073496E0
1.407920325E1;2.662962341E-1;1.588646393E0;9.880204010E0;1.001065144E1
1.408918325E1;2.435435486E-1;2.185455322E-1;1.017104919E1;1.017631158E1
1.409916225E1;3.155438232E-1;-1.370100861E0;1.011611343E1;1.021334888E1
1.410914225E1;1.779798889E-1;-1.903292084E0;9.466165009E0;9.657250000E0
1.411912125E1;6.592291260E-1;-5.966592407E-1;9.281000061E0;9.323494378E0
1.412910125E1;7.149133301E-1;1.341360626E0;9.824519806E0;9.941405274E0
1.413908025E1;3.451821899E-1;1.504820709E0;1.037208115E1;1.048635797E1
1.414906025E1;-2.450404358E-1;8.005352783E-1;9.476343842E0;9.513253605E0
1.415903925E1;-1.978884888E-1;-7.929011536E-1;9.972861328E0;1.000628878E1
1.416901925E1;3.248245239E-1;-1.161734161E0;9.958640900E0;1.003143389E1
1.417899825E1;3.854484558E-1;-6.059399414E-1;9.039103088E0;9.067586138E0
1.418897825E1;8.539741516E-1;5.087919617E-1;1.042596909E1;1.047325033E1
1.419895725E1;1.922003174E-1;9.976753235E-1;9.738149414E0;9.791008683E0
1.420893725E1;-1.615141296E-1;9.472302246E-1;9.743837585E0;9.791103248E0
1.421891625E1;1.727407837E-1;2.116598511E-1;1.026714935E1;1.027078357E1
1.422889625E1;2.245330811E-2;-1.118174744E-1;8.907377014E0;8.908107126E0
1.423887525E1;8.619076538E-1;3.757186890E-2;9.934690704E0;9.972079815E0
1.424885525E1;1.434017944E0;3.451821899E-1;9.424102478E0;9.538829369E0
1.425883425E1;-4.418811035E-1;-2.075134735E0;1.105301514E1;1.125480283E1
1.426881425E1;-1.143023071E0;5.182223511E-1;8.952732697E0;9.040269846E0
1.427879362E1;-5.125341797E-1;1.556014252E0;1.005519012E1;1.018777307E1
1.428877362E1;1.581311646E0;1.803749084E0;1.044842239E1;1.072024197E1
1.429875262E1;6.508465576E-1;4.694238281E-1;9.093140717E0;9.128481148E0
1.430873262E1;-6.842271423E-1;-7.394622803E-2;7.725584564E0;7.756177647E0
1.431871162E1;-2.095642090E-1;-9.630972290E-1;1.226983475E1;1.230935897E1
1.432869162E1;1.735341339E0;-9.819580078E-1;1.165147064E1;1.182084681E1
1.433867062E1;-1.989363098E-1;-6.450086975E-1;6.512058105E0;6.546946818E0
1.434865062E1;1.025816803E0;1.529219971E0;1.096724350E1;1.112075734E1
1.435863062E1;3.005749512E-1;6.336323547E-1;1.076546310E1;1.078828212E1
1.436860962E1;-8.213420105E-1;2.320175171E-2;8.542884979E0;8.582308826E0
1.437858962E1;9.520202637E-2;1.883084106E-1;1.065065186E1;1.065274183E1
1.438856862E1;3.962260437E-1;-1.691482544E-2;8.904682617E0;8.913509618E0
1.439854862E1;3.118016052E-1;-1.089733887E-1;9.468709717E0;9.474468805E0
1.440852762E1;-1.047821045E-1;-1.009500732E0;9.693392487E0;9.746380298E0
1.441850762E1;-7.981402588E-1;-1.867815857E0;8.755592651E0;8.988112517E0
1.442848662E1;1.156195679E0;2.513273621E-1;1.361359039E1;1.366491117E1
1.443846662E1;1.321452026E0;1.513951721E0;8.892857208E0;9.117082571E0
1.444844562E1;7.927514648E-1;2.092199249E0;8.571475525E0;8.858664982E0
1.445842562E1;-9.451345825E-1;9.011260986E-2;9.983788605E0;1.002883017E1
1.446840462E1;-9.538165283E-1;-1.179696808E0;8.225694580E0;8.364418799E0
1.447838462E1;6.533912659E-1;-1.067130890E0;1.129895370E1;1.136802724E1
1.448836362E1;8.592132568E-1;-1.597178650E0;1.076651093E1;1.091819511E1
1.449834362E1;5.855822754E-1;-4.285588074E-1;7.993976440E0;8.026844248E0
1.450832262E1;1.510957947E0;2.420466614E-1;1.074809921E1;1.085648273E1
1.451830262E1;-6.481521606E-2;-1.930984497E-1;9.772128754E0;9.774251296E0
1.452828163E1;-7.126679993E-1;3.336561584E-1;9.901459808E0;9.932679822E0
1.453826162E1;-2.336640930E-1;-4.760101318E-2;9.494755554E0;9.497749618E0
1.454824062E1;4.842430115E-1;-4.824467468E-1;9.207502899E0;9.232841155E0
1.455822063E1;6.435118103E-1;-1.485810242E0;1.095422058E1;1.107324199E1
1.456819962E1;5.697152710E-1;-1.462758179E0;9.410031738E0;9.540069931E0
1.457817962E1;1.775308228E-1;-8.158035278E-2;9.519603882E0;9.521608615E0
1.458815862E1;1.023870850E-1;2.236349487E-1;9.847571869E0;9.850642995E0
1.459813862E1;-3.550616455E-1;3.373983765E-1;9.457632751E0;9.470307476E0
1.460811762E1;1.344204712E-1;-3.266207886E-1;1.030142807E1;1.030748128E1
1.461809762E1;3.833528137E-1;-1.033600616E0;9.659413147E0;9.722116640E0
1.462807662E1;3.761677551E-1;-1.609752502E0;9.453591156E0;9.597040744E0
1.463805662E1;2.555186462E-1;-1.129850464E0;9.585616608E0;9.655355902E0
1.464803562E1;2.296224976E-1;-3.791615295E-1;1.005309448E1;1.006286235E1
1.465801562E1;5.822891235E-2;2.468367004E-1;9.629325714E0;9.632664879E0
1.466799462E1;5.385800171E-1;-1.010398865E-1;9.803114319E0;9.818417787E0
1.467797462E1;-2.013313293E-1;-1.784588928E0;1.140104141E1;1.154162195E1
1.468795362E1;-1.419049072E0;-1.870210876E0;8.365354156E0;8.688529171E0
1.469793362E1;-9.277706909E-1;3.323089600E-1;9.700577545E0;9.750507290E0
1.470791262E1;6.489006042E-1;8.996292114E-2;1.012629227E1;1.014746079E1
1.471789262E1;6.848258972E-1;-1.118623810E0;9.856104126E0;9.942992220E0
1.472787262E1;4.864883423E-2;-1.511407013E0;9.341773682E0;9.463374313E0
1.473785162E1;1.046324158E-1;-1.507515106E0;1.035576508E1;1.046543931E1
1.474783162E1;1.931134186E0;-1.474733276E0;1.443193863E1;1.463505962E1
1.475781062E1;-1.263971558E0;-1.504371643E-1;5.750591583E0;5.889784291E0
1.476779062E1;-1.487157440E0;1.322948914E0;7.299121399E0;7.565646322E0
1.477776962E1;-6.334826660E-1;1.059347076E0;1.225052490E1;1.231254957E1
1.478774962E1;-7.987390137E-1;-1.856439514E0;9.296867065E0;9.513994372E0
1.479772862E1;6.086343384E-1;-1.184935913E0;8.969946899E0;9.068321579E0
1.480770862E1;7.206015015E-1;-1.316811676E0;7.858807526E0;8.000882154E0
1.481768762E1;1.900447998E0;-1.704954529E-1;1.571566910E1;1.583107787E1
1.482766762E1;-5.209167480E-1;9.702822876E-1;5.810167694E0;5.913615697E0
1.483764662E1;-1.135838013E0;-8.207432556E-1;9.456734619E0;9.559998804E0
1.484762662E1;-8.164022827E-1;-1.447040863E0;1.184292252E1;1.195889851E1
1.485760562E1;3.757186890E-1;-1.466799774E0;6.902446289E0;7.066571367E0
1.486758562E1;1.583107910E0;7.912545776E-1;1.214873657E1;1.227697498E1
1.487756462E1;-2.351609802E-1;-4.061054993E-1;8.466094666E0;8.479090827E0
1.488754462E1;2.342628479E-1;-1.245410156E0;1.047806076E1;1.055441532E1
1.489752362E1;-3.336561584E-1;-2.837798767E0;1.007674530E1;1.047402617E1
1.490750362E1;-2.297721863E-1;-1.379980316E0;8.458460541E0;8.573371312E0
1.491748262E1;7.722441101E-1;5.821394348E-1;1.075663147E1;1.080001703E1
1.492746262E1;7.059320068E-1;1.222058716E0;9.241182861E0;9.348327561E0
1.493744162E1;-1.212478638E-2;-3.308120728E-2;9.684261475E0;9.684325567E0
1.494742162E1;-3.173400879E-2;-1.353036346E0;1.108609634E1;1.116840394E1
1.495740062E1;-8.155041504E-1;-1.560355225E0;9.261390839E0;9.427253880E0
1.496738062E1;-1.631607056E-2;-8.797206116E-1;9.259893951E0;9.301602580E0
1.497735962E1;7.813751221E-1;1.475930786E-1;1.192599976E1;1.195248095E1
1.498733962E1;1.483415222E-1;3.772155762E-1;7.350314941E0;7.361482632E0
1.499731862E1;9.171427917E-1;9.827064514E-1;9.381740570E0;9.477548153E0
1.500729862E1;1.432521057E-1;-9.645941162E-1;1.139999359E1;1.144162650E1
1.501727763E1;-7.358697510E-1;-1.322050781E0;8.586743774E0;8.719030405E0
1.502725762E1;-6.218069458E-1;-1.081950073E0;9.918374634E0;9.996570173E0
1.503723662E1;1.457369385E0;-2.577639771E-1;1.249900818E1;1.258632485E1
1.504721663E1;-8.981323242E-4;-4.813989258E-1;8.239765320E0;8.253815982E0
1.505719562E1;7.188052368E-1;1.061293030E0;8.057893524E0;8.159207799E0
1.506717562E1;4.846920776E-1;-5.170248413E-1;9.677226105E0;9.703141047E0
1.507715462E1;1.080602875E0;-2.382445679E0;1.455318649E1;1.478644606E1
1.508713462E1;-3.873944092E-1;1.001267853E0;5.134323120E0;5.245368018E0
1.509711362E1;-9.343569946E-1;6.381230164E-1;8.991502075E0;9.062413230E0
1.510709362E1;2.439926147E-1;9.113049316E-1;1.244961090E1;1.248530419E1
1.511707262E1;-8.666976929E-1;-2.279759216E-1;8.580307159E0;8.626981446E0
1.512705262E1;-6.200106812E-1;-1.004710693E0;1.028975235E1;1.035726123E1
1.513703262E1;2.396516418E-1;-4.026626587E-2;1.053164932E1;1.053445261E1
1.514701162E1;-1.383123779E-1;-5.493576050E-2;8.664581909E0;8.665859906E0
1.515699162E1;1.024469604E0;6.939569092E-1;1.038914566E1;1.046257433E1
1.516697062E1;5.774990845E-1;-3.122506714E-1;9.956395569E0;9.978016757E0
1.517695062E1;6.792874146E-1;1.041833496E-1;9.538764038E0;9.563488116E0
1.518692962E1;3.996688843E-1;-6.212081909E-1;9.853559418E0;9.881207823E0
1.519690962E1;4.126918030E-1;2.065704346E-1;9.200317841E0;9.211885488E0
1.520688862E1;7.319778442E-1;5.652246094E-1;1.039992325E1;1.044096135E1
1.521686862E1;2.297721863E-1;2.839595032E-1;9.346563721E0;9.353698821E0
1.522684762E1;-1.245110779E0;-9.638456726E-1;1.066876419E1;1.078433256E1
1.523682762E1;1.037342834E0;2.020797729E0;9.654623108E0;9.918238300E0
1.524680662E1;-4.293072510E-1;1.529519348E0;8.518036652E0;8.664910995E0
1.525678662E1;-6.780899048E-1;4.420307922E-1;9.977801056E0;1.001057996E1
1.526676562E1;-1.775308228E-1;5.864804077E-1;8.187973022E0;8.210869545E0
1.527674562E1;6.813830566E-1;-4.659809875E-1;1.176224030E1;1.179117119E1
1.528672512E1;6.689588928E-1;-1.186881866E0;1.106918152E1;1.115271151E1
1.529670512E1;6.242019653E-1;-5.523513794E-1;7.570207672E0;7.615954591E0
1.530668413E1;1.020428009E0;-3.674858093E-1;7.470814362E0;7.549131498E0
1.531666412E1;2.631527710E0;-1.708696747E0;1.504775803E1;1.537138915E1
1.532664312E1;1.774260406E0;1.310225372E0;7.464976501E0;7.783994134E0
1.533662312E1;8.884025574E-1;1.384770355E0;8.648116150E0;8.803224465E0
1.534660212E1;-3.109034729E-1;7.875123596E-1;1.184441940E1;1.187464137E1
1.535658212E1;-1.668430481E0;-2.854563904E-1;1.063253952E1;1.076643127E1
1.536656112E1;-1.022673340E0;6.631210327E-1;9.443711700E0;9.522041847E0
1.537654112E1;5.278024292E-1;2.600093079E-1;1.087129303E1;1.088720315E1
1.538652012E1;7.429051208E-1;8.704399109E-1;7.109765167E0;7.201273109E0
1.539650012E1;7.854167175E-1;7.017407227E-1;9.157506866E0;9.217876733E0
1.540647912E1;9.478289795E-1;-1.356628876E0;1.154144943E1;1.165949727E1
1.541645912E1;1.399589539E0;-7.225474548E-1;9.938732300E0;1.006276927E1
1.542643812E1;-5.523513794E-2;-5.102888489E-1;8.748706970E0;8.763750298E0
1.543641812E1;1.344504089E0;8.146060181E-1;1.021116577E1;1.033146556E1
1.544639712E1;1.289867706E0;1.932481384E-1;9.893226929E0;9.978829721E0
1.545637712E1;3.603007507E-1;-1.081201630E0;9.638905792E0;9.706045460E0
1.546635612E1;1.929487610E-1;-9.126521301E-1;9.753118286E0;9.797626214E0
1.547633612E1;4.568499756E-1;-1.216969299E-1;9.711055756E0;9.722557582E0
1.548631512E1;3.823049927E-1;6.497987366E-1;9.673184509E0;9.702519985E0
1.549629512E1;-4.908293152E-1;-9.699829102E-2;9.947414246E0;9.959988567E0
1.550627412E1;1.243913269E-1;-1.787433014E0;1.262190262E1;1.274844366E1
1.551625412E1;1.600172424E-1;-3.198847961E-1;7.477400665E0;7.485950341E0
1.552623312E1;-3.553610229E-1;-6.996450806E-1;8.411757660E0;8.448280986E0
1.553621312E1;1.209185486E0;7.210505676E-1;1.086201233E1;1.095286973E1
1.554619312E1;2.318678284E-1;-1.223555603E0;1.034558624E1;1.042026898E1
1.555617212E1;3.733236694E-1;5.563929749E-1;1.053748718E1;1.055876791E1
1.556615212E1;-2.945874023E-1;-1.777403870E0;7.611222382E0;7.821550511E0
1.557613112E1;1.194965057E0;-1.374142456E0;1.070139633E1;1.085523341E1
1.558611112E1;-2.484832764E-1;-1.343007202E0;9.776769104E0;9.871708383E0
1.559609013E1;-1.110690308E-1;-2.290237427E-1;9.843380585E0;9.846670988E0
1.560607012E1;1.059796143E-1;2.851570129E-1;1.007045837E1;1.007505226E1
1.561604912E1;2.008822632E-1;-1.096769257E0;9.264833679E0;9.331687928E0
1.562602913E1;-4.923262024E-1;-1.441352692E0;9.977801056E0;1.009338380E1
1.563600812E1;-6.430627441E-1;-1.547182617E0;9.353898468E0;9.502774347E0
1.564598812E1;2.107617188E-1;9.969268799E-2;1.086380859E1;1.086631015E1
1.565596712E1;3.342549133E-1;9.512718201E-1;9.298513641E0;9.353020922E0
1.566594712E1;4.433779907E-1;5.866300964E-1;1.027328659E1;1.029956971E1
1.567592612E1;-9.479786682E-1;-1.218166809E0;1.008542725E1;1.020286414E1
1.568590612E1;-1.046773224E0;-1.176852722E0;8.577762451E0;8.721165357E0
1.569588512E1;-1.618135071E-1;-2.529739380E-1;1.030591873E1;1.031029293E1
1.570586512E1;1.728904724E-1;5.444178772E-1;9.729766846E0;9.746519626E0
1.571584412E1;-8.120613098E-1;8.849597168E-1;7.840395813E0;7.931860045E0
1.572582412E1;1.562450867E0;-5.528004456E-1;1.426428726E1;1.436024833E1
1.573580312E1;-1.057999878E0;-1.398242340E0;6.547983398E0;6.778682171E0
1.574578312E1;-1.836830292E0;-5.113366699E-1;9.152267761E0;9.348765474E0
1.575576212E1;1.442400513E0;1.937720490E0;1.620290588E1;1.638198520E1
1.576574212E1;5.393284607E-1;1.327738953E0;2.411934357E0;2.805564695E0
1.577572112E1;-5.426216125E-1;1.820963287E0;1.142349472E1;1.158043942E1
1.578570112E1;-2.776276703E0;-2.708318024E0;1.027373566E1;1.098145451E1
1.579568012E1;-9.813592529E-1;-1.984423370E0;7.838150482E0;8.144790057E0
1.580566012E1;1.892065430E0;7.963439941E-2;1.223765167E1;1.238331021E1
1.581563912E1;1.146166534E0;1.919009399E0;8.856782227E0;9.134488831E0
1.582561912E1;-5.143304443E-1;-7.719447327E-1;9.500144348E0;9.545322263E0
1.583559812E1;-1.464255066E0;-2.787203979E-1;1.051832703E1;1.062341430E1
1.584557812E1;-1.297950897E0;-6.692582703E-1;9.122928772E0;9.239069896E0
1.585555712E1;4.340972900E-1;9.830058289E-1;8.949738922E0;9.014020617E0
1.586553712E1;1.303040314E0;3.914360046E-1;1.216565140E1;1.224149542E1
1.587551612E1;-4.778063965E-1;-1.936972046E-1;7.833959198E0;7.850906589E0
1.588549612E1;-1.042581940E0;-9.171427917E-1;1.009201355E1;1.018709308E1
1.589547512E1;-1.655557251E-1;-6.559359741E-1;1.028481262E1;1.030703795E1
1.590545512E1;5.700146484E-1;2.095642090E-2;1.036594391E1;1.038162555E1
1.591543412E1;2.149380341E0;8.193960571E-1;1.060305084E1;1.084969736E1
1.592541412E1;-2.213147736E0;-8.143066406E-2;7.679779816E0;7.992726185E0
1.593539312E1;-1.542691956E0;9.529183960E-1;9.517358551E0;9.688553335E0
1.594537312E1;2.978805542E-2;-5.751040649E-1;1.213616272E1;1.214981801E1
1.595535212E1;1.993404694E0;3.210823059E-1;1.072055649E1;1.090903697E1
1.596533212E1;8.358618164E-1;-6.044430542E-1;6.847360840E0;6.924620340E0
1.597531112E1;2.736609192E0;-6.017486572E-2;1.186133423E1;1.217308098E1
1.598529112E1;8.759783936E-1;-7.872129822E-1;7.131769409E0;7.228359242E0
1.599527112E1;4.486170959E-1;-1.057251434E0;1.131991013E1;1.137802281E1
1.600525012E1;3.397933960E-2;-4.592449951E-1;1.016087036E1;1.017130017E1
1.601523012E1;-1.022373962E-1;-1.869612122E-1;9.626781006E0;9.629139085E0
1.602520912E1;7.247927856E-1;2.478845215E-1;1.020727386E1;1.023597631E1
1.603518912E1;1.003513184E0;1.643582153E-1;9.966275024E0;1.001801828E1
1.604516812E1;2.029779053E-1;-9.580078125E-3;8.744815063E0;8.747175676E0
1.605514812E1;4.644841003E-1;-6.159690857E-1;1.028181885E1;1.031072074E1
1.606512712E1;8.030799866E-1;-1.291813660E0;9.616302795E0;9.735861516E0
1.607510712E1;9.610015869E-2;-2.260000305E0;9.042096863E0;9.320748484E0
1.608508613E1;9.683363342E-1;-3.400927734E-1;9.369466095E0;9.425509708E0
1.609506612E1;1.224753113E0;-6.104306030E-1;9.977202301E0;1.007061128E1
1.610504512E1;2.800077209E0;-4.775070190E-2;1.024813889E1;1.062389115E1
1.611502513E1;-4.471202087E-1;-1.675166473E0;9.742191010E0;9.895270833E0
1.612500412E1;1.009351044E0;-1.372196503E0;1.049542465E1;1.063276311E1
1.613498412E1;1.728755035E0;1.588945770E0;1.104508163E1;1.129190732E1
1.614496312E1;2.368075562E-1;-8.969348145E-1;8.568930817E0;8.618999085E0
1.615494312E1;-9.864486694E-2;-6.153703308E-1;1.074839859E1;1.076645177E1
1.616492212E1;-2.736309814E-1;-1.213077393E0;7.068451080E0;7.177007130E0
1.617490212E1;1.970801697E0;-4.939727783E-1;1.212673233E1;1.229575965E1
1.618488112E1;4.248165894E-1;-2.743794250E-1;1.045231430E1;1.046454143E1
1.619486112E1;2.650987244E-1;-1.050665131E0;7.581284637E0;7.658332149E0
1.620484012E1;1.887425079E0;-1.407972107E0;1.157842255E1;1.181544022E1
1.621482012E1;7.665559387E-1;-1.945803680E0;8.354726257E0;8.612503167E0
1.622479912E1;6.876699829E-1;-7.238946533E-1;1.049377808E1;1.054117127E1
1.623477912E1;5.662724304E-1;6.691085815E-2;9.265432434E0;9.282961797E0
1.624475812E1;6.001020813E-1;3.121009827E-1;9.957144012E0;9.980092505E0
1.625473812E1;7.023394775E-1;-8.668473816E-1;1.432820435E1;1.437157420E1
1.626471712E1;2.018103333E0;-2.254761200E0;1.096664474E1;1.137646633E1
1.627469712E1;-7.497908020E-1;-1.234931946E-1;3.755690002E-1;8.476372395E-1
1.628467587E1;-1.058299255E-1;1.711091766E0;1.169862259E1;1.182356991E1
1.629465587E1;-1.040336609E0;1.845661926E-1;1.381581985E1;1.385616264E1
1.630463487E1;4.986131287E-1;1.728904724E0;9.980495453E0;1.014140109E1
1.631461487E1;2.188449097E-1;-1.579515381E0;7.484436035E0;7.652420839E0
1.632459387E1;1.450783081E0;-3.755690002E-1;1.134640503E1;1.144494346E1
1.633457387E1;5.182223511E-1;-1.672172699E0;9.054071960E0;9.221764202E0
1.634455287E1;2.426454163E-1;-2.177072754E0;1.096125595E1;1.117799868E1
1.635453287E1;9.490264893E-2;1.260977783E0;8.864865417E0;8.954602747E0
1.636451187E1;5.737568665E-1;1.152004395E0;9.808652802E0;9.892723631E0
1.637449187E1;4.888833618E-1;8.740324402E-1;1.061307999E1;1.066022544E1
1.638447087E1;-1.100661163E0;-4.670288086E-1;9.051377563E0;9.130005843E0
1.639445087E1;-1.080004120E0;-4.059558105E-1;1.001507355E1;1.008131475E1
1.640442987E1;-7.834707642E-1;1.924996948E-1;9.425150299E0;9.459616310E0
1.641440987E1;-1.766326904E-1;6.938072205E-1;9.602980499E0;9.629631459E0
1.642438887E1;-2.767744446E-1;7.141648865E-1;8.977281647E0;9.009895745E0
1.643436887E1;1.222956848E-1;2.462379456E-1;9.321416016E0;9.325469741E0
1.644434787E1;1.380728760E0;-1.039737854E0;1.155162827E1;1.168022184E1
1.645432787E1;1.732796631E0;-1.116827545E0;1.289358765E1;1.305735388E1
1.646430687E1;-7.753875732E-1;4.520599365E-2;4.619693298E0;4.684531528E0
1.647428687E1;1.299298096E-1;7.888595581E-2;9.466763763E0;9.467983994E0
1.648426587E1;5.890251160E-1;-9.246272278E-1;1.402029465E1;1.406309170E1
1.649424587E1;-1.987117767E0;4.370910645E-2;6.894662476E0;7.175438534E0
