"Time (s)";"Acceleration x (m/s^2)";"Acceleration y (m/s^2)";"Acceleration z (m/s^2)";"Absolute acceleration (m/s^2)"
1.827297900E-2;-9.097966552E-2;6.943184882E-2;9.512462616E0;9.513151061E0
2.026964500E-2;-8.858546615E-2;6.943184882E-2;9.490914345E0;9.491581705E0
2.226631200E-2;-9.576806426E-2;7.182604820E-2;9.476549149E0;9.477305222E0
2.426297900E-2;-1.005564705E-1;7.661445439E-2;9.469367027E0;9.470210836E0
2.625964500E-2;-1.029506698E-1;7.422025502E-2;9.466972351E0;9.467823033E0
2.825631200E-2;-1.053448766E-1;6.464344263E-2;9.464578629E0;9.465385620E0
3.025303100E-2;-1.029506698E-1;5.746084079E-2;9.452607155E0;9.453342404E0
3.224980200E-2;-1.053448766E-1;6.464344263E-2;9.452607155E0;9.453415168E0
3.424662500E-2;-1.053448766E-1;7.661445439E-2;9.469367027E0;9.470262890E0
3.624350000E-2;-1.053448766E-1;7.900865376E-2;9.478943825E0;9.479858435E0
3.824042700E-2;-1.029506698E-1;6.943184882E-2;9.483732224E0;9.484545140E0
4.023740600E-2;-1.053448766E-1;6.224924326E-2;9.490914345E0;9.491703093E0
4.223448900E-2;-1.077390760E-1;7.182604820E-2;9.474155426E0;9.475040249E0
4.423167700E-2;-1.029506698E-1;7.900865376E-2;9.455001831E0;9.455892387E0
4.622896800E-2;-9.576806426E-2;7.900865376E-2;9.452607155E0;9.453422444E0
4.822636400E-2;-9.097966552E-2;7.661445439E-2;9.452607155E0;9.453355441E0
5.022386400E-2;-8.858546615E-2;6.943184882E-2;9.459790230E0;9.460459786E0
5.222146800E-2;-8.858546615E-2;6.224924326E-2;9.471760750E0;9.472379535E0
5.421917700E-2;-8.858546615E-2;6.464344263E-2;9.476549149E0;9.477183649E0
5.621698900E-2;-9.097966552E-2;6.943184882E-2;9.471760750E0;9.472452153E0
5.821490600E-2;-9.816227108E-2;7.422025502E-2;9.476549149E0;9.477348165E0
6.021292700E-2;-1.029506698E-1;7.422025502E-2;9.495702744E0;9.496550852E0
6.221100000E-2;-9.816227108E-2;7.182604820E-2;9.507674217E0;9.508452231E0
6.420912500E-2;-9.337386489E-2;6.943184882E-2;9.510068893E0;9.510780715E0
6.620730200E-2;-9.576806426E-2;6.464344263E-2;9.507674217E0;9.508376271E0
6.820553100E-2;-1.029506698E-1;6.703764945E-2;9.500492096E0;9.501286384E0
7.020381200E-2;-1.077390760E-1;7.182604820E-2;9.490914345E0;9.491797606E0
7.220214500E-2;-1.077390760E-1;7.182604820E-2;9.486125946E0;9.487009653E0
7.420053100E-2;-1.029506698E-1;7.422025502E-2;9.483732224E0;9.484581402E0
7.619896800E-2;-1.029506698E-1;7.182604820E-2;9.476549149E0;9.477380523E0
7.819740600E-2;-1.005564705E-1;6.464344263E-2;9.476549149E0;9.477303105E0
8.019584300E-2;-9.337386489E-2;6.464344263E-2;9.466972351E0;9.467653508E0
8.219428100E-2;-8.858546615E-2;6.464344263E-2;9.457395554E0;9.458031339E0
8.419271800E-2;-9.816227108E-2;6.224924326E-2;9.452607155E0;9.453321788E0
8.619115600E-2;-1.125274822E-1;6.943184882E-2;9.450213432E0;9.451138404E0
8.818959300E-2;-1.101332754E-1;7.422025502E-2;9.447818756E0;9.448752152E0
9.018803100E-2;-9.816227108E-2;7.422025502E-2;9.455001831E0;9.455802668E0
9.218646800E-2;-9.576806426E-2;7.182604820E-2;9.457395554E0;9.458153158E0
9.418469800E-2;-1.005564705E-1;6.224924326E-2;9.452607155E0;9.453346952E0
9.618271800E-2;-1.029506698E-1;5.746084079E-2;9.462183952E0;9.462918458E0
9.818042700E-2;-9.576806426E-2;5.746084079E-2;9.476549149E0;9.477207238E0
1.001778230E-1;-9.337386489E-2;5.985504389E-2;9.481337547E0;9.481986237E0
1.021752180E-1;-9.576806426E-2;6.464344263E-2;9.488520622E0;9.489224093E0
1.041726140E-1;-1.005564705E-1;6.943184882E-2;9.493309021E0;9.494095457E0
1.061700100E-1;-1.077390760E-1;6.943184882E-2;9.486125946E0;9.486991829E0
1.081674060E-1;-1.125274822E-1;6.703764945E-2;9.488520622E0;9.489424644E0
1.101648020E-1;-1.101332754E-1;6.703764945E-2;9.498097420E0;9.498972470E0
1.121621980E-1;-1.029506698E-1;7.182604820E-2;9.498097420E0;9.498926909E0
1.141595930E-1;-1.053448766E-1;7.900865376E-2;9.505280495E0;9.506192571E0
1.161569890E-1;-1.077390760E-1;8.140286058E-2;9.519645691E0;9.520603354E0
1.181543850E-1;-1.053448766E-1;7.661445439E-2;9.526827812E0;9.527718273E0
1.201517810E-1;-1.053448766E-1;7.182604820E-2;9.529222488E0;9.530075433E0
1.221491770E-1;-1.101332754E-1;6.943184882E-2;9.522039413E0;9.522929419E0
1.241465730E-1;-1.101332754E-1;6.943184882E-2;9.502885818E0;9.503777617E0
1.261439680E-1;-1.125274822E-1;7.422025502E-2;9.493309021E0;9.494266019E0
1.281413640E-1;-1.149216816E-1;7.422025502E-2;9.493309021E0;9.494294698E0
1.301387600E-1;-1.125274822E-1;6.703764945E-2;9.481337547E0;9.482242254E0
1.321361560E-1;-1.077390760E-1;6.464344263E-2;9.466972351E0;9.467806081E0
1.341335520E-1;-1.029506698E-1;6.703764945E-2;9.459790230E0;9.460587935E0
1.361309480E-1;-1.053448766E-1;7.422025502E-2;9.447818756E0;9.448697552E0
1.381283950E-1;-1.053448766E-1;7.422025502E-2;9.443030357E0;9.443909599E0
1.401258950E-1;-1.101332754E-1;6.943184882E-2;9.450213432E0;9.451110201E0
1.421234480E-1;-1.077390760E-1;5.985504389E-2;9.452607155E0;9.453410620E0
1.441210520E-1;-1.005564705E-1;5.746084079E-2;9.452607155E0;9.453316634E0
1.461186560E-1;-9.816227108E-2;6.943184882E-2;9.455001831E0;9.455766296E0
1.481162600E-1;-1.077390760E-1;7.900865376E-2;9.455001831E0;9.455945733E0
1.501138640E-1;-1.173158810E-1;7.661445439E-2;9.459790230E0;9.460827870E0
1.521114680E-1;-1.125274822E-1;7.182604820E-2;9.469367027E0;9.470307984E0
1.541091250E-1;-1.029506698E-1;6.943184882E-2;9.469367027E0;9.470181177E0
1.561068330E-1;-9.337386489E-2;7.422025502E-2;9.464578629E0;9.465330208E0
1.581045410E-1;-9.337386489E-2;7.900865376E-2;9.476549149E0;9.477338488E0
1.601022500E-1;-1.029506698E-1;7.900865376E-2;9.486125946E0;9.487013580E0
1.620999580E-1;-1.077390760E-1;7.182604820E-2;9.486125946E0;9.487009653E0
1.640976660E-1;-1.053448766E-1;6.464344263E-2;9.488520622E0;9.489325578E0
1.660953750E-1;-1.029506698E-1;6.464344263E-2;9.505280495E0;9.506057800E0
1.680930830E-1;-1.029506698E-1;6.464344263E-2;9.507674217E0;9.508451327E0
1.700907910E-1;-1.053448766E-1;7.182604820E-2;9.493309021E0;9.494165192E0
1.720885000E-1;-1.125274822E-1;7.661445439E-2;9.483732224E0;9.484709226E0
1.740862080E-1;-1.149216816E-1;7.422025502E-2;9.486125946E0;9.487112369E0
1.760839160E-1;-1.101332754E-1;6.943184882E-2;9.481337547E0;9.482231373E0
1.780816250E-1;-1.029506698E-1;6.224924326E-2;9.483732224E0;9.484495279E0
1.800793330E-1;-1.029506698E-1;6.464344263E-2;9.500492096E0;9.501269793E0
1.820770410E-1;-1.077390760E-1;6.703764945E-2;9.500492096E0;9.501339475E0
1.840747500E-1;-1.077390760E-1;6.943184882E-2;9.483732224E0;9.484598325E0
1.860724580E-1;-1.053448766E-1;6.943184882E-2;9.481337547E0;9.482176966E0
1.880701660E-1;-1.005564705E-1;6.943184882E-2;9.476549149E0;9.477336976E0
1.900678750E-1;-1.005564705E-1;6.703764945E-2;9.469367027E0;9.470138201E0
1.920655830E-1;-1.101332754E-1;6.464344263E-2;9.466972351E0;9.467833628E0
1.940632910E-1;-1.125274822E-1;6.703764945E-2;9.471760750E0;9.472666371E0
1.960610000E-1;-1.053448766E-1;7.422025502E-2;9.478943825E0;9.479819736E0
1.980587080E-1;-9.816227108E-2;7.661445439E-2;9.481337547E0;9.482155203E0
2.000564160E-1;-1.029506698E-1;7.661445439E-2;9.471760750E0;9.472630063E0
2.020541250E-1;-1.077390760E-1;7.422025502E-2;9.464578629E0;9.465482818E0
2.040518330E-1;-1.053448766E-1;7.422025502E-2;9.464578629E0;9.465455869E0
2.060495410E-1;-1.005564705E-1;7.422025502E-2;9.476549149E0;9.477373266E0
2.080472500E-1;-1.029506698E-1;7.422025502E-2;9.493309021E0;9.494157343E0
2.100449580E-1;-1.053448766E-1;7.661445439E-2;9.498097420E0;9.498990573E0
2.120426660E-1;-1.053448766E-1;7.900865376E-2;9.493309021E0;9.494222247E0
2.140403750E-1;-1.053448766E-1;7.661445439E-2;9.493309021E0;9.494202625E0
2.160380830E-1;-1.053448766E-1;6.943184882E-2;9.495702744E0;9.496540892E0
2.180357910E-1;-1.053448766E-1;6.943184882E-2;9.498097420E0;9.498935357E0
2.200335000E-1;-1.029506698E-1;7.422025502E-2;9.505280495E0;9.506127748E0
2.220312080E-1;-1.005564705E-1;7.900865376E-2;9.502885818E0;9.503746253E0
2.240289160E-1;-1.029506698E-1;7.900865376E-2;9.488520622E0;9.489408032E0
2.260266250E-1;-1.077390760E-1;7.661445439E-2;9.478943825E0;9.479865691E0
2.280243330E-1;-1.125274822E-1;7.422025502E-2;9.478943825E0;9.479902273E0
2.300220410E-1;-1.077390760E-1;7.182604820E-2;9.471760750E0;9.472645797E0
2.320197500E-1;-1.005564705E-1;6.943184882E-2;9.462183952E0;9.462972975E0
2.340174580E-1;-9.097966552E-2;6.703764945E-2;9.459790230E0;9.460465239E0
2.360151660E-1;-9.337386489E-2;7.182604820E-2;9.457395554E0;9.458129219E0
2.380128750E-1;-1.053448766E-1;7.422025502E-2;9.459790230E0;9.460667914E0
2.400105830E-1;-1.125274822E-1;6.703764945E-2;9.464578629E0;9.465484937E0
2.420082910E-1;-1.053448766E-1;6.224924326E-2;9.462183952E0;9.462975096E0
2.440060000E-1;-9.097966552E-2;6.464344263E-2;9.457395554E0;9.458054067E0
2.460037080E-1;-8.619125932E-2;6.943184882E-2;9.455001831E0;9.455649599E0
2.480014160E-1;-8.858546615E-2;6.943184882E-2;9.464578629E0;9.465247846E0
2.499991250E-1;-9.576806426E-2;6.464344263E-2;9.483732224E0;9.484436050E0
2.519968330E-1;-1.029506698E-1;6.464344263E-2;9.483732224E0;9.484511295E0
2.539945410E-1;-1.005564705E-1;6.224924326E-2;9.466972351E0;9.467711026E0
2.559922500E-1;-9.816227108E-2;5.985504389E-2;9.459790230E0;9.460488869E0
2.579899580E-1;-9.576806426E-2;6.224924326E-2;9.469367027E0;9.470055881E0
2.599876660E-1;-9.576806426E-2;6.464344263E-2;9.486125946E0;9.486829595E0
2.619853750E-1;-1.005564705E-1;7.182604820E-2;9.493309021E0;9.494113268E0
2.639830830E-1;-1.053448766E-1;7.661445439E-2;9.498097420E0;9.498990573E0
2.659807910E-1;-1.005564705E-1;7.422025502E-2;9.495702744E0;9.496525198E0
2.679785000E-1;-9.337386489E-2;7.182604820E-2;9.490914345E0;9.491645419E0
2.699762080E-1;-9.097966552E-2;6.943184882E-2;9.483732224E0;9.484422754E0
2.719739160E-1;-9.097966552E-2;7.182604820E-2;9.483732224E0;9.484440583E0
2.739716250E-1;-9.337386489E-2;6.943184882E-2;9.486125946E0;9.486839565E0
2.759693330E-1;-9.097966552E-2;6.703764945E-2;9.483732224E0;9.484405529E0
2.779670410E-1;-9.097966552E-2;6.703764945E-2;9.488520622E0;9.489193588E0
2.799647500E-1;-9.337386489E-2;6.943184882E-2;9.493309021E0;9.494022100E0
2.819624580E-1;-9.576806426E-2;6.943184882E-2;9.476549149E0;9.477287379E0
2.839601660E-1;-1.005564705E-1;7.422025502E-2;9.466972351E0;9.467797302E0
2.859578750E-1;-1.005564705E-1;7.422025502E-2;9.478943825E0;9.479767734E0
2.879555830E-1;-9.816227108E-2;7.661445439E-2;9.483732224E0;9.484549673E0
2.899532910E-1;-9.097966552E-2;7.900865376E-2;9.483732224E0;9.484497696E0
2.919510000E-1;-8.858546615E-2;7.900865376E-2;9.486125946E0;9.486868567E0
2.939487080E-1;-9.337386489E-2;7.422025502E-2;9.483732224E0;9.484482285E0
2.959464160E-1;-9.337386489E-2;6.943184882E-2;9.471760750E0;9.472475451E0
2.979441250E-1;-9.576806426E-2;6.943184882E-2;9.466972351E0;9.467711328E0
2.999418330E-1;-9.816227108E-2;7.422025502E-2;9.471760750E0;9.472560170E0
3.019395410E-1;-9.816227108E-2;7.422025502E-2;9.471760750E0;9.472560170E0
3.039372500E-1;-9.816227108E-2;6.943184882E-2;9.478943825E0;9.479706359E0
3.059349580E-1;-9.576806426E-2;6.703764945E-2;9.493309021E0;9.494028741E0
3.079326660E-1;-9.576806426E-2;6.224924326E-2;9.500492096E0;9.501178693E0
3.099303750E-1;-9.337386489E-2;5.746084079E-2;9.498097420E0;9.498730179E0
3.119280830E-1;-9.816227108E-2;6.224924326E-2;9.488520622E0;9.489232551E0
3.139257910E-1;-1.029506698E-1;6.943184882E-2;9.490914345E0;9.491726646E0
3.159235000E-1;-1.029506698E-1;7.422025502E-2;9.488520622E0;9.489369372E0
3.179212080E-1;-9.097966552E-2;7.422025502E-2;9.474155426E0;9.474882953E0
3.199189160E-1;-7.900865376E-2;7.422025502E-2;9.466972351E0;9.467592963E0
3.219166250E-1;-8.140286058E-2;7.422025502E-2;9.469367027E0;9.470007760E0
3.239143330E-1;-9.097966552E-2;7.422025502E-2;9.471760750E0;9.472488461E0
3.259120410E-1;-9.816227108E-2;7.422025502E-2;9.471760750E0;9.472560170E0
3.279097500E-1;-1.005564705E-1;7.422025502E-2;9.471760750E0;9.472585283E0
3.299074580E-1;-9.816227108E-2;7.422025502E-2;9.466972351E0;9.467772176E0
3.319051660E-1;-1.005564705E-1;7.422025502E-2;9.457395554E0;9.458221340E0
3.339028750E-1;-1.005564705E-1;7.422025502E-2;9.452607155E0;9.453433359E0
3.359005830E-1;-1.029506698E-1;7.422025502E-2;9.450213432E0;9.451065623E0
3.378982910E-1;-1.053448766E-1;7.661445439E-2;9.457395554E0;9.458292551E0
3.398960000E-1;-1.005564705E-1;7.900865376E-2;9.474155426E0;9.475018470E0
3.418937080E-1;-9.097966552E-2;8.140286058E-2;9.481337547E0;9.482123465E0
3.438914160E-1;-9.337386489E-2;7.661445439E-2;9.481337547E0;9.482106841E0
3.458891250E-1;-9.337386489E-2;6.943184882E-2;9.474155426E0;9.474869946E0
3.478868330E-1;-8.858546615E-2;6.464344263E-2;9.471760750E0;9.472395571E0
3.498845410E-1;-9.097966552E-2;6.703764945E-2;9.481337547E0;9.482011023E0
3.518822500E-1;-9.816227108E-2;7.661445439E-2;9.488520622E0;9.489337659E0
3.538799580E-1;-1.053448766E-1;8.140286058E-2;9.488520622E0;9.489454545E0
3.558776660E-1;-1.053448766E-1;7.661445439E-2;9.493309021E0;9.494202625E0
3.578753750E-1;-1.029506698E-1;6.943184882E-2;9.498097420E0;9.498909107E0
3.598730830E-1;-9.816227108E-2;6.943184882E-2;9.500492096E0;9.501252900E0
3.618707910E-1;-9.816227108E-2;7.182604820E-2;9.500492096E0;9.501270698E0
3.638685000E-1;-1.005564705E-1;7.422025502E-2;9.498097420E0;9.498919667E0
3.658662080E-1;-1.053448766E-1;7.182604820E-2;9.498097420E0;9.498953159E0
3.678639160E-1;-1.053448766E-1;6.703764945E-2;9.502885818E0;9.503706144E0
3.698616250E-1;-1.029506698E-1;6.703764945E-2;9.505280495E0;9.506074383E0
3.718593330E-1;-9.576806426E-2;7.182604820E-2;9.500492096E0;9.501246264E0
3.738570410E-1;-9.576806426E-2;7.182604820E-2;9.490914345E0;9.491669274E0
3.758547500E-1;-9.816227108E-2;6.943184882E-2;9.486125946E0;9.486887903E0
3.778524580E-1;-9.576806426E-2;6.943184882E-2;9.483732224E0;9.484469895E0
3.798501660E-1;-9.097966552E-2;7.182604820E-2;9.481337547E0;9.482046085E0
3.818478750E-1;-8.619125932E-2;7.422025502E-2;9.474155426E0;9.474838184E0
3.838455830E-1;-8.858546615E-2;7.422025502E-2;9.459790230E0;9.460496140E0
3.858432910E-1;-9.337386489E-2;7.422025502E-2;9.457395554E0;9.458147704E0
3.878410000E-1;-9.576806426E-2;7.661445439E-2;9.466972351E0;9.467766727E0
3.898387080E-1;-1.005564705E-1;7.422025502E-2;9.469367027E0;9.470191769E0
3.918364160E-1;-1.077390760E-1;6.943184882E-2;9.471760750E0;9.472627945E0
3.938341250E-1;-1.125274822E-1;6.703764945E-2;9.474155426E0;9.475060819E0
3.958318330E-1;-1.077390760E-1;7.422025502E-2;9.471760750E0;9.472664253E0
3.978295410E-1;-1.053448766E-1;7.422025502E-2;9.474155426E0;9.475031780E0
3.998272500E-1;-1.053448766E-1;6.703764945E-2;9.483732224E0;9.484554205E0
4.018249580E-1;-1.077390760E-1;6.703764945E-2;9.483732224E0;9.484581100E0
4.038226660E-1;-1.077390760E-1;7.422025502E-2;9.483732224E0;9.484634587E0
4.058203750E-1;-1.029506698E-1;7.900865376E-2;9.488520622E0;9.489408032E0
4.078180830E-1;-9.816227108E-2;7.661445439E-2;9.488520622E0;9.489337659E0
4.098157910E-1;-9.816227108E-2;7.422025502E-2;9.488520622E0;9.489318631E0
4.118135000E-1;-9.576806426E-2;7.422025502E-2;9.498097420E0;9.498870184E0
4.138112080E-1;-9.337386489E-2;7.661445439E-2;9.500492096E0;9.501259838E0
4.158089160E-1;-9.097966552E-2;7.900865376E-2;9.500492096E0;9.501256219E0
4.178066250E-1;-9.576806426E-2;8.619125932E-2;9.498097420E0;9.498971263E0
4.198043330E-1;-1.053448766E-1;8.140286058E-2;9.493309021E0;9.494242473E0
4.218020410E-1;-1.077390760E-1;6.943184882E-2;9.490914345E0;9.491779790E0
4.237997500E-1;-1.053448766E-1;6.224924326E-2;9.493309021E0;9.494097571E0
4.257974580E-1;-1.005564705E-1;6.464344263E-2;9.495702744E0;9.496455179E0
4.277951660E-1;-9.576806426E-2;6.943184882E-2;9.490914345E0;9.491651458E0
4.297928750E-1;-9.576806426E-2;7.422025502E-2;9.481337547E0;9.482111677E0
4.317905830E-1;-9.097966552E-2;6.943184882E-2;9.471760750E0;9.472452153E0
4.337882910E-1;-8.858546615E-2;6.943184882E-2;9.464578629E0;9.465247846E0
4.357860000E-1;-8.858546615E-2;7.422025502E-2;9.459790230E0;9.460496140E0
4.377837600E-1;-9.097966552E-2;6.943184882E-2;9.464578629E0;9.465270556E0
4.397815730E-1;-8.858546615E-2;6.464344263E-2;9.459790230E0;9.460425855E0
4.417793850E-1;-9.097966552E-2;6.703764945E-2;9.447818756E0;9.448494621E0
4.437771980E-1;-1.005564705E-1;7.422025502E-2;9.459790230E0;9.460615807E0
4.457750100E-1;-1.029506698E-1;7.900865376E-2;9.476549149E0;9.477437680E0
4.477728230E-1;-9.816227108E-2;7.661445439E-2;9.483732224E0;9.484549673E0
4.497706350E-1;-9.576806426E-2;6.703764945E-2;9.488520622E0;9.489240706E0
4.517684480E-1;-9.576806426E-2;6.464344263E-2;9.490914345E0;9.491617639E0
4.537662600E-1;-9.576806426E-2;6.703764945E-2;9.490914345E0;9.491634246E0
4.557640730E-1;-9.337386489E-2;6.943184882E-2;9.483732224E0;9.484446022E0
4.577618850E-1;-9.097966552E-2;6.943184882E-2;9.471760750E0;9.472452153E0
4.597596980E-1;-8.858546615E-2;6.464344263E-2;9.459790230E0;9.460425855E0
4.617575100E-1;-8.858546615E-2;6.224924326E-2;9.471760750E0;9.472379535E0
4.637553230E-1;-9.576806426E-2;6.464344263E-2;9.495702744E0;9.496405683E0
4.657531350E-1;-9.816227108E-2;6.943184882E-2;9.495702744E0;9.496463932E0
4.677509480E-1;-9.576806426E-2;6.943184882E-2;9.474155426E0;9.474893843E0
4.697487600E-1;-8.858546615E-2;6.224924326E-2;9.457395554E0;9.458015279E0
4.717465730E-1;-8.379705995E-2;6.464344263E-2;9.455001831E0;9.455594130E0
4.737443850E-1;-8.379705995E-2;6.943184882E-2;9.471760750E0;9.472385889E0
4.757421980E-1;-8.140286058E-2;7.422025502E-2;9.490914345E0;9.491553623E0
4.777400100E-1;-6.943184882E-2;7.422025502E-2;9.493309021E0;9.493853043E0
4.797378230E-1;-8.140286058E-2;6.943184882E-2;9.505280495E0;9.505882626E0
4.817356350E-1;-1.005564705E-1;6.943184882E-2;9.481337547E0;9.482124977E0
4.837334480E-1;-9.337386489E-2;7.182604820E-2;9.457395554E0;9.458129219E0
4.857312600E-1;-8.379705995E-2;6.943184882E-2;9.457395554E0;9.458021642E0
4.877290730E-1;-8.379705995E-2;6.943184882E-2;9.435848236E0;9.436475754E0
4.897268850E-1;-8.619125932E-2;6.943184882E-2;9.428665161E0;9.429314738E0
4.917246980E-1;-8.379705995E-2;7.422025502E-2;9.450213432E0;9.450876388E0
4.937225100E-1;-8.379705995E-2;7.661445439E-2;9.471760750E0;9.472441260E0
4.957203230E-1;-8.619125932E-2;7.661445439E-2;9.478943825E0;9.479645286E0
4.977181350E-1;-8.379705995E-2;7.422025502E-2;9.469367027E0;9.470028643E0
4.997159480E-1;-7.661445439E-2;6.943184882E-2;9.466972351E0;9.467536958E0
5.017137600E-1;-7.661445439E-2;7.422025502E-2;9.474155426E0;9.474755905E0
5.037115730E-1;-8.379705995E-2;7.661445439E-2;9.483732224E0;9.484411875E0
5.057093850E-1;-9.097966552E-2;6.703764945E-2;9.488520622E0;9.489193588E0
5.077071980E-1;-1.005564705E-1;5.746084079E-2;9.486125946E0;9.486832918E0
5.097050100E-1;-1.077390760E-1;5.746084079E-2;9.483732224E0;9.484518245E0
5.117028230E-1;-1.077390760E-1;6.224924326E-2;9.483732224E0;9.484548464E0
5.137006350E-1;-1.053448766E-1;6.703764945E-2;9.488520622E0;9.489342189E0
5.156984480E-1;-1.005564705E-1;6.703764945E-2;9.493309021E0;9.494078250E0
5.176962080E-1;-9.816227108E-2;6.703764945E-2;9.498097420E0;9.498841217E0
5.196939160E-1;-9.816227108E-2;6.943184882E-2;9.500492096E0;9.501252900E0
5.216916250E-1;-9.816227108E-2;6.943184882E-2;9.502885818E0;9.503646431E0
5.236893330E-1;-9.816227108E-2;5.985504389E-2;9.510068893E0;9.510763840E0
5.256870410E-1;-9.816227108E-2;5.267243832E-2;9.517251015E0;9.517902978E0
5.276847500E-1;-9.576806426E-2;5.746084079E-2;9.514857292E0;9.515512732E0
5.296824580E-1;-9.816227108E-2;6.224924326E-2;9.502885818E0;9.503596671E0
5.316801660E-1;-9.816227108E-2;6.224924326E-2;9.488520622E0;9.489232551E0
5.336778750E-1;-9.576806426E-2;5.746084079E-2;9.483732224E0;9.484389815E0
5.356755830E-1;-9.337386489E-2;5.746084079E-2;9.478943825E0;9.479577863E0
5.376732910E-1;-9.097966552E-2;6.224924326E-2;9.474155426E0;9.474796742E0
5.396710000E-1;-9.097966552E-2;6.703764945E-2;9.471760750E0;9.472434906E0
5.416687080E-1;-9.337386489E-2;6.703764945E-2;9.471760750E0;9.472458204E0
5.436664160E-1;-9.576806426E-2;6.464344263E-2;9.476549149E0;9.477253508E0
5.456641250E-1;-9.576806426E-2;6.703764945E-2;9.476549149E0;9.477270141E0
5.476618330E-1;-9.097966552E-2;6.943184882E-2;9.466972351E0;9.467664104E0
5.496595410E-1;-8.858546615E-2;6.703764945E-2;9.450213432E0;9.450866381E0
5.516572500E-1;-9.097966552E-2;6.943184882E-2;9.435848236E0;9.436542270E0
5.536549580E-1;-8.140286058E-2;6.943184882E-2;9.443030357E0;9.443636457E0
5.556526660E-1;-7.182604820E-2;7.422025502E-2;9.462183952E0;9.462747633E0
5.576503750E-1;-7.182604820E-2;7.900865376E-2;9.466972351E0;9.467574496E0
5.596480830E-1;-7.661445439E-2;7.661445439E-2;9.466972351E0;9.467592357E0
5.616457910E-1;-7.900865376E-2;7.661445439E-2;9.466972351E0;9.467612035E0
5.636435000E-1;-8.619125932E-2;7.422025502E-2;9.471760750E0;9.472443681E0
5.656412080E-1;-8.858546615E-2;6.943184882E-2;9.469367027E0;9.470035906E0
5.676389160E-1;-9.337386489E-2;6.703764945E-2;9.459790230E0;9.460488566E0
5.696366250E-1;-9.816227108E-2;6.943184882E-2;9.459790230E0;9.460554307E0
5.716343330E-1;-9.337386489E-2;7.182604820E-2;9.469367027E0;9.470099765E0
5.736320410E-1;-8.619125932E-2;7.900865376E-2;9.471760750E0;9.472482410E0
5.756297500E-1;-8.858546615E-2;7.900865376E-2;9.474155426E0;9.474898986E0
5.776274580E-1;-9.097966552E-2;6.943184882E-2;9.483732224E0;9.484422754E0
5.796251660E-1;-8.858546615E-2;5.985504389E-2;9.486125946E0;9.486728386E0
5.816228750E-1;-8.619125932E-2;6.224924326E-2;9.486125946E0;9.486721740E0
5.836205830E-1;-8.140286058E-2;6.464344263E-2;9.483732224E0;9.484301877E0
5.856182910E-1;-8.140286058E-2;7.182604820E-2;9.471760750E0;9.472382863E0
5.876160000E-1;-8.379705995E-2;7.661445439E-2;9.464578629E0;9.465259655E0
5.896137080E-1;-8.140286058E-2;7.661445439E-2;9.464578629E0;9.465238762E0
5.916114160E-1;-7.182604820E-2;7.422025502E-2;9.464578629E0;9.465142167E0
5.936091250E-1;-6.464344263E-2;6.943184882E-2;9.462183952E0;9.462659494E0
5.956068330E-1;-6.703764945E-2;6.464344263E-2;9.459790230E0;9.460248623E0
5.976045410E-1;-7.182604820E-2;6.224924326E-2;9.469367027E0;9.469844024E0
5.996022500E-1;-8.140286058E-2;6.224924326E-2;9.476549149E0;9.477103205E0
6.015999580E-1;-8.858546615E-2;6.224924326E-2;9.469367027E0;9.469985969E0
6.035976660E-1;-9.576806426E-2;6.703764945E-2;9.462183952E0;9.462906040E0
6.055953230E-1;-9.337386489E-2;7.422025502E-2;9.464578629E0;9.465330208E0
6.075929270E-1;-8.140286058E-2;6.943184882E-2;9.478943825E0;9.479547628E0
6.095904790E-1;-7.182604820E-2;6.464344263E-2;9.488520622E0;9.489012665E0
6.115879790E-1;-7.182604820E-2;6.464344263E-2;9.490914345E0;9.491406263E0
6.135854790E-1;-7.661445439E-2;6.943184882E-2;9.488520622E0;9.489083947E0
6.155829790E-1;-7.661445439E-2;6.943184882E-2;9.478943825E0;9.479507719E0
6.175804790E-1;-7.900865376E-2;6.464344263E-2;9.478943825E0;9.479493508E0
6.195779790E-1;-7.661445439E-2;6.224924326E-2;9.490914345E0;9.491427703E0
6.215754790E-1;-7.661445439E-2;6.224924326E-2;9.495702744E0;9.496215843E0
6.235729790E-1;-7.900865376E-2;6.464344263E-2;9.500492096E0;9.501040533E0
6.255704790E-1;-8.140286058E-2;6.943184882E-2;9.500492096E0;9.501094530E0
6.275679790E-1;-8.379705995E-2;6.943184882E-2;9.502885818E0;9.503508910E0
6.295654790E-1;-8.619125932E-2;7.182604820E-2;9.495702744E0;9.496365542E0
6.315629790E-1;-9.337386489E-2;7.661445439E-2;9.483732224E0;9.484501323E0
6.335604790E-1;-1.005564705E-1;8.140286058E-2;9.476549149E0;9.477432236E0
6.355579790E-1;-1.053448766E-1;9.816227108E-2;9.478943825E0;9.480037416E0
6.375554790E-1;-1.484405100E-1;2.370259613E-1;9.483732224E0;9.487855015E0
6.395529790E-1;-4.432265759E-1;9.558850527E-1;9.510068893E0;9.568258796E0
6.415504790E-1;-1.154603720E0;2.488772631E0;9.536404610E0;9.923210762E0
6.435479790E-1;-1.861192584E0;3.981258154E0;9.510068893E0;1.047644332E1
6.455454790E-1;-2.141613483E0;4.616020679E0;9.488520622E0;1.076690201E1
6.475429790E-1;-2.000355482E0;4.455609322E0;9.490914345E0;1.067386207E1
6.495404790E-1;-1.695992589E0;4.002806187E0;9.512462616E0;1.045876634E1
6.515379790E-1;-1.382052898E0;3.585915565E0;9.505280495E0;1.025276636E1
6.535354790E-1;-1.125873327E0;3.284246206E0;9.490914345E0;1.010600411E1
6.555329790E-1;-9.630676508E-1;3.049315214E0;9.476549149E0;1.000154020E1
6.575304790E-1;-8.433575630E-1;2.817077637E0;9.478943825E0;9.924593414E0
6.595279790E-1;-6.970119476E-1;2.565686464E0;9.466972351E0;9.833216065E0
6.615254790E-1;-5.389946699E-1;2.311601639E0;9.450213432E0;9.743744214E0
6.635229790E-1;-4.121019542E-1;2.064998865E0;9.438241959E0;9.670287462E0
6.655204790E-1;-2.947860956E-1;1.813308477E0;9.445425034E0;9.622423839E0
6.675179790E-1;-1.699883193E-1;1.561917305E0;9.459790230E0;9.589375000E0
6.695154790E-1;-4.788403213E-2;1.360505104E0;9.445425034E0;9.543024735E0
6.715129790E-1;5.267243832E-2;1.214458823E0;9.419088364E0;9.497205390E0
6.735105310E-1;1.340752989E-1;1.082777739E0;9.407117844E0;9.470176870E0
6.755081350E-1;2.082955539E-1;9.726444483E-1;9.385569572E0;9.438132255E0
6.775057910E-1;2.753331959E-1;8.744821548E-1;9.378387451E0;9.423092836E0
6.795035000E-1;3.378817141E-1;7.712322474E-1;9.383175850E0;9.420878529E0
6.815012080E-1;4.025251567E-1;6.634931564E-1;9.385569572E0;9.417598732E0
6.834989160E-1;4.647744000E-1;5.461772680E-1;9.368810654E0;9.396219342E0
6.854966250E-1;5.198410153E-1;4.456208050E-1;9.383175850E0;9.408124235E0
6.874943330E-1;5.509656668E-1;3.522469103E-1;9.414299965E0;9.436984947E0
6.894920410E-1;5.820902586E-1;2.418143749E-1;9.404723167E0;9.425822039E0
6.914897500E-1;6.180033088E-1;1.628057212E-1;9.452607155E0;9.474186816E0
6.934874580E-1;6.323685050E-1;1.460463107E-1;9.464578629E0;9.486804945E0
6.954851660E-1;6.275801063E-1;1.292868853E-1;9.464578629E0;9.486243751E0
6.974828750E-1;6.132149100E-1;6.224924326E-2;9.498097420E0;9.518075545E0
6.994805830E-1;5.796960592E-1;-1.197100803E-2;9.488520622E0;9.506219776E0
7.014782910E-1;5.342062712E-1;-3.351882473E-2;9.505280495E0;9.520339129E0
7.034760000E-1;4.982932210E-1;9.576806799E-3;9.512462616E0;9.525509586E0
7.054737080E-1;4.623802006E-1;7.182604820E-2;9.522039413E0;9.533529725E0
7.074714160E-1;4.288613796E-1;8.140286058E-2;9.534010887E0;9.543998748E0
7.094691250E-1;4.001309574E-1;2.154781483E-2;9.531616211E0;9.540035466E0
7.114668330E-1;3.785831332E-1;-2.873042040E-2;9.541193008E0;9.548744140E0
7.134645410E-1;3.354875147E-1;-4.070143029E-2;9.541193008E0;9.547176153E0
7.154622500E-1;2.442085743E-1;-4.548983276E-2;9.510068893E0;9.513312647E0
7.174599580E-1;1.651999205E-1;-7.422025502E-2;9.507674217E0;9.509398965E0
7.194576660E-1;1.292868853E-1;-8.619125932E-2;9.538799286E0;9.540064772E0
7.214553750E-1;9.816227108E-2;-9.337386489E-2;9.514857292E0;9.515821762E0
7.234530830E-1;4.548983276E-2;-1.244984865E-1;9.505280495E0;9.506204631E0
7.254507910E-1;-2.394201607E-2;-1.436520964E-1;9.488520622E0;9.489638178E0
7.274485000E-1;-7.182604820E-2;-1.532289088E-1;9.466972351E0;9.468484756E0
7.294462080E-1;-1.005564705E-1;-1.651999205E-1;9.459790230E0;9.461766950E0
7.314439160E-1;-1.292868853E-1;-1.628057212E-1;9.462183952E0;9.464467547E0
7.334416250E-1;-1.699883193E-1;-1.197100878E-1;9.462183952E0;9.464467850E0
7.354393330E-1;-2.274491638E-1;-4.309562966E-2;9.462183952E0;9.465015346E0
7.374370410E-1;-2.681505978E-1;-4.788403399E-3;9.421483040E0;9.425299483E0
7.394347500E-1;-2.876034677E-1;-1.436521020E-2;9.450213432E0;9.454599729E0
7.414324580E-1;-3.187280893E-1;-4.788403399E-3;9.488520622E0;9.493873505E0
7.434301660E-1;-3.594295382E-1;5.746084079E-2;9.493309021E0;9.500284601E0
7.454278750E-1;-3.929483593E-1;1.364694983E-1;9.572318077E0;9.581351977E0
7.474255830E-1;-4.360439777E-1;2.298433632E-1;9.668086052E0;9.680643069E0
7.494232910E-1;-4.767454267E-1;3.498527110E-1;9.502885818E0;9.521266827E0
7.514210000E-1;-4.958990216E-1;4.551976025E-1;9.347262383E0;9.371469188E0
7.534187080E-1;-5.054758191E-1;5.294178724E-1;9.344868660E0;9.373492378E0
7.554164160E-1;-5.102642179E-1;5.653308630E-1;9.445425034E0;9.476076330E0
7.574141250E-1;-5.126584172E-1;5.749076605E-1;9.648932457E0;9.679629901E0
7.594118330E-1;-5.126584172E-1;5.892729163E-1;9.622595787E0;9.654243155E0
7.614095410E-1;-5.150526166E-1;6.323685050E-1;9.402329445E0;9.437635727E0
7.634072500E-1;-5.246294737E-1;6.563105583E-1;9.275436401E0;9.313415059E0
7.654049580E-1;-5.198410153E-1;6.299743056E-1;9.270648003E0;9.306557725E0
7.674026660E-1;-5.006874204E-1;6.060323119E-1;9.371204376E0;9.404117955E0
7.694003750E-1;-4.719569981E-1;6.203975081E-1;9.416694641E0;9.448903346E0
7.713980830E-1;-4.288613796E-1;6.275801063E-1;9.423876762E0;9.454482117E0
7.733957910E-1;-3.714005351E-1;5.725134611E-1;9.490914345E0;9.515417233E0
7.753935000E-1;-3.474585116E-1;5.294178724E-1;9.522039413E0;9.543073158E0
7.773912080E-1;-3.402759135E-1;5.054758191E-1;9.469367027E0;9.488951754E0
7.793889160E-1;-3.426701128E-1;4.767454267E-1;9.483732224E0;9.501888544E0
7.813866250E-1;-3.546411395E-1;4.504092038E-1;9.507674217E0;9.524941355E0
7.833843330E-1;-3.402759135E-1;4.312555790E-1;9.493309021E0;9.509189515E0
7.853819890E-1;-3.067570925E-1;4.336497784E-1;9.510068893E0;9.524891727E0
7.873795930E-1;-2.899976671E-1;4.671685994E-1;9.431059837E0;9.447075463E0
7.893770930E-1;-2.729389966E-1;4.863222241E-1;9.349657059E0;9.366274185E0
7.913744890E-1;-2.274491638E-1;4.575918019E-1;9.366415977E0;9.380344964E0
7.933718850E-1;-1.173158810E-1;4.073135555E-1;9.404723167E0;9.414270296E0
7.953692810E-1;4.070143029E-2;3.690063357E-1;9.517251015E0;9.524488919E0
7.973666770E-1;1.891419291E-1;3.115454912E-1;9.567529678E0;9.574469145E0
7.993640730E-1;3.043628931E-1;2.442085743E-1;9.586683273E0;9.594621972E0
8.013614680E-1;3.666121364E-1;1.891419291E-1;9.562741280E0;9.571635174E0
8.033588640E-1;4.216787815E-1;1.460463107E-1;9.483732224E0;9.494225582E0
8.053562600E-1;4.647744000E-1;1.077390760E-1;9.440636635E0;9.452684435E0
8.073536560E-1;5.246294737E-1;5.027823523E-2;9.474155426E0;9.488803140E0
8.093510520E-1;5.844845176E-1;7.182605099E-3;9.536404610E0;9.554301995E0
8.113484480E-1;6.108207107E-1;2.154781483E-2;9.505280495E0;9.524910684E0
8.133458430E-1;6.227917075E-1;6.464344263E-2;9.481337547E0;9.501989790E0
8.153432390E-1;6.180033088E-1;1.244984865E-1;9.476549149E0;9.497495024E0
8.173406350E-1;6.180033088E-1;1.795651317E-1;9.469367027E0;9.491210862E0
8.193380310E-1;6.251859069E-1;2.059013397E-1;9.455001831E0;9.477885440E0
8.213354270E-1;6.371569037E-1;2.178723514E-1;9.416694641E0;9.440740185E0
8.233328230E-1;6.347627044E-1;2.346317619E-1;9.390357971E0;9.414711816E0
8.253302180E-1;6.275801063E-1;2.442085743E-1;9.380781174E0;9.404921586E0
8.273276140E-1;6.419453025E-1;2.178723514E-1;9.375992775E0;9.400468214E0
8.293250100E-1;6.467337608E-1;1.532289088E-1;9.419088364E0;9.442508632E0
8.313224060E-1;6.227917075E-1;7.661445439E-2;9.517251015E0;9.537914141E0
8.333198020E-1;5.796960592E-1;4.070143029E-2;9.622595787E0;9.640127271E0
8.353171980E-1;5.222352743E-1;5.985504389E-2;9.629778862E0;9.644114954E0
8.373145930E-1;4.575918019E-1;1.053448766E-1;9.584288597E0;9.595784268E0
8.393119890E-1;4.144961834E-1;1.221042871E-1;9.541193008E0;9.550972755E0
8.413093850E-1;3.809773326E-1;1.292868853E-1;9.488520622E0;9.497045984E0
8.433067810E-1;3.594295382E-1;1.388636976E-1;9.474155426E0;9.481987859E0
8.453041770E-1;3.402759135E-1;1.101332754E-1;9.478943825E0;9.485688856E0
8.473015730E-1;3.091512918E-1;5.746084079E-2;9.512462616E0;9.517658393E0
8.492989680E-1;2.418143749E-1;0.000000000E0;9.507674217E0;9.510748825E0
8.512963640E-1;1.771709323E-1;-3.830722719E-2;9.543587685E0;9.545308946E0
8.532937600E-1;1.292868853E-1;-7.661445439E-2;9.522039413E0;9.523225266E0
8.552911560E-1;8.619125932E-2;-1.436520964E-1;9.493309021E0;9.494787045E0
8.572885520E-1;2.154781483E-2;-2.250549644E-1;9.464578629E0;9.467278525E0
8.592859480E-1;-2.873042040E-2;-2.923918962E-1;9.450213432E0;9.454779340E0
8.612833430E-1;-5.027823523E-2;-3.259107172E-1;9.428665161E0;9.434430159E0
8.632807390E-1;-4.309562966E-2;-3.306991160E-1;9.404723167E0;9.410634250E0
8.652781870E-1;-2.633621916E-2;-3.139396906E-1;9.395146370E0;9.400426960E0
8.672756870E-1;-3.591302410E-2;-2.729389966E-1;9.416694641E0;9.420717775E0
8.692732390E-1;-7.182604820E-2;-2.059013397E-1;9.464578629E0;9.467090522E0
8.712708430E-1;-1.101332754E-1;-1.149216816E-1;9.459790230E0;9.461129294E0
8.732685000E-1;-1.197100878E-1;-2.394201607E-2;9.443030357E0;9.443819463E0
8.752662080E-1;-1.101332754E-1;2.873042040E-2;9.443030357E0;9.443716276E0
8.772639160E-1;-8.379705995E-2;3.830722719E-2;9.419088364E0;9.419539001E0
8.792616250E-1;-5.267243832E-2;4.548983276E-2;9.426271439E0;9.426528361E0
8.812593330E-1;-2.633621916E-2;5.985504389E-2;9.452607155E0;9.452833345E0
8.832570410E-1;-1.197100803E-2;6.224924326E-2;9.483732224E0;9.483944072E0
8.852547500E-1;-1.915361360E-2;6.464344263E-2;9.493309021E0;9.493548431E0
8.872524580E-1;-4.788403213E-2;6.464344263E-2;9.502885818E0;9.503226322E0
8.892501660E-1;-8.619125932E-2;2.633621916E-2;9.565135002E0;9.565559583E0
8.912478750E-1;-9.337386489E-2;-2.394201700E-3;9.579500198E0;9.579955556E0
8.932455830E-1;-6.703764945E-2;2.394201700E-3;9.545981407E0;9.546217094E0
8.952432910E-1;-7.182604820E-2;-4.788403399E-3;9.543587685E0;9.543859167E0
8.972410000E-1;-1.005564705E-1;-3.830722719E-2;9.548376083E0;9.548982400E0
8.992387080E-1;-1.005564705E-1;-5.267243832E-2;9.524434090E0;9.525110536E0
9.012364160E-1;-8.140286058E-2;-5.027823523E-2;9.500492096E0;9.500973865E0
9.032341250E-1;-5.506663769E-2;-3.830722719E-2;9.471760750E0;9.471998283E0
9.052318330E-1;-4.070143029E-2;-4.309562966E-2;9.488520622E0;9.488705783E0
9.072295410E-1;-3.591302410E-2;-7.422025502E-2;9.519645691E0;9.520002756E0
9.092272500E-1;-3.112462163E-2;-9.337386489E-2;9.519645691E0;9.520154489E0
9.112249580E-1;-9.576806799E-3;-9.337386489E-2;9.488520622E0;9.488984877E0
9.132226660E-1;5.027823523E-2;-6.703764945E-2;9.435848236E0;9.436220318E0
9.152203750E-1;1.268926859E-1;-1.915361360E-2;9.373599052E0;9.374477469E0
9.172180830E-1;1.915361285E-1;1.197100803E-2;9.378387451E0;9.380350771E0
9.192157910E-1;2.322375625E-1;7.182605099E-3;9.371204376E0;9.374084347E0
9.212135000E-1;2.585737705E-1;-7.182605099E-3;9.395146370E0;9.398706682E0
9.232112080E-1;2.681505978E-1;-2.394201700E-3;9.433453560E0;9.437264251E0
9.252089160E-1;2.585737705E-1;0.000000000E0;9.416694641E0;9.420244071E0
9.272066250E-1;2.729389966E-1;-7.182605099E-3;9.433453560E0;9.437403952E0
9.292043330E-1;3.115454912E-1;1.915361360E-2;9.457395554E0;9.462545012E0
9.312020410E-1;3.378817141E-1;7.900865376E-2;9.476549149E0;9.482899883E0
9.331996980E-1;3.378817141E-1;9.816227108E-2;9.476549149E0;9.483078806E0
9.351973020E-1;3.354875147E-1;9.816227108E-2;9.512462616E0;9.518882956E0
9.371949060E-1;3.235165179E-1;9.576806426E-2;9.526827812E0;9.532800356E0
9.391925100E-1;2.876034677E-1;9.097966552E-2;9.495702744E0;9.500492811E0
9.411900100E-1;2.370259613E-1;1.005564705E-1;9.507674217E0;9.511159863E0
9.431874060E-1;2.082955539E-1;1.077390760E-1;9.555558205E0;9.558435403E0
9.451847500E-1;1.867477298E-1;1.316810995E-1;9.555558205E0;9.558289974E0
9.471820410E-1;1.771709323E-1;1.771709323E-1;9.579500198E0;9.582776379E0
9.491792810E-1;1.699883193E-1;2.370259613E-1;9.557952881E0;9.562402450E0
9.511764680E-1;1.556231081E-1;2.947860956E-1;9.500492096E0;9.506338278E0
9.531736560E-1;1.532289088E-1;3.378817141E-1;9.490914345E0;9.498162888E0
9.551708430E-1;1.628057212E-1;3.714005351E-1;9.505280495E0;9.513926705E0
9.571680310E-1;1.699883193E-1;4.168903828E-1;9.481337547E0;9.492020612E0
9.591652180E-1;1.628057212E-1;4.719569981E-1;9.443030357E0;9.456218665E0
9.611624060E-1;1.484405100E-1;4.958990216E-1;9.440636635E0;9.454817317E0
9.631595930E-1;1.197100878E-1;4.671685994E-1;9.447818756E0;9.460119252E0
9.651567810E-1;1.029506698E-1;4.384381771E-1;9.452607155E0;9.463329694E0
9.671539680E-1;7.422025502E-2;4.264671803E-1;9.423876762E0;9.433813446E0
9.691511560E-1;3.351882473E-2;3.953425586E-1;9.421483040E0;9.429833610E0
9.711483430E-1;2.394201700E-3;3.354875147E-1;9.447818756E0;9.453773683E0
9.731455310E-1;-4.788403399E-3;2.876034677E-1;9.426271439E0;9.430659145E0
9.751427180E-1;0.000000000E0;2.828150690E-1;9.411906242E0;9.416154389E0
9.771399060E-1;-7.182605099E-3;2.753331959E-1;9.428665161E0;9.432687140E0
9.791370930E-1;-2.154781483E-2;2.322375625E-1;9.419088364E0;9.421975599E0
9.811343330E-1;-4.788403213E-2;2.082955539E-1;9.452607155E0;9.455023106E0
9.831316250E-1;-9.576806426E-2;1.891419291E-1;9.507674217E0;9.510037603E0
9.851289680E-1;-1.221042871E-1;1.723825186E-1;9.500492096E0;9.502840378E0
9.871263640E-1;-1.149216816E-1;1.556231081E-1;9.483732224E0;9.485705163E0
9.891238120E-1;-1.077390760E-1;1.292868853E-1;9.500492096E0;9.501982576E0
9.911213120E-1;-1.268926859E-1;1.029506698E-1;9.510068893E0;9.511472596E0
9.931188640E-1;-1.675941199E-1;9.097966552E-2;9.534010887E0;9.535917821E0
9.951164680E-1;-2.059013397E-1;1.005564705E-1;9.498097420E0;9.500861096E0
9.971141250E-1;-2.442085743E-1;1.149216816E-1;9.438241959E0;9.442100195E0
9.991118330E-1;-2.561795712E-1;1.221042871E-1;9.462183952E0;9.466438748E0
1.001109593E0;-2.274491638E-1;1.101332754E-1;9.464578629E0;9.467951789E0
1.003107406E0;-2.106897533E-1;8.858546615E-2;9.459790230E0;9.462550858E0
1.005105218E0;-2.442085743E-1;8.379705995E-2;9.498097420E0;9.501605884E0
1.007103031E0;-2.729389966E-1;8.858546615E-2;9.457395554E0;9.461747922E0
1.009100843E0;-2.681505978E-1;9.816227108E-2;9.464578629E0;9.468885319E0
1.011098656E0;-2.489969730E-1;1.197100878E-1;9.486125946E0;9.490148337E0
1.013096468E0;-2.202665508E-1;1.436520964E-1;9.459790230E0;9.463444641E0
1.015094281E0;-2.106897533E-1;1.532289088E-1;9.459790230E0;9.463376800E0
1.017092093E0;-2.082955539E-1;1.388636976E-1;9.469367027E0;9.472675549E0
1.019089906E0;-1.843535304E-1;1.412578970E-1;9.483732224E0;9.486575615E0
1.021087718E0;-1.675941199E-1;1.604115069E-1;9.438241959E0;9.441092676E0
1.023085531E0;-1.388636976E-1;1.891419291E-1;9.423876762E0;9.426797496E0
1.025083343E0;-9.337386489E-2;2.178723514E-1;9.471760750E0;9.474726315E0
1.027081156E0;-6.943184882E-2;2.466027737E-1;9.457395554E0;9.460864885E0
1.029078968E0;-7.900865376E-2;2.753331959E-1;9.462183952E0;9.466518678E0
1.031076781E0;-1.029506698E-1;2.777273953E-1;9.450213432E0;9.454854058E0
1.033074593E0;-1.292868853E-1;2.561795712E-1;9.447818756E0;9.452175534E0
1.035072406E0;-1.484405100E-1;2.394201756E-1;9.464578629E0;9.468769995E0
1.037070218E0;-1.604115069E-1;2.154781520E-1;9.488520622E0;9.492322492E0
1.039068031E0;-1.699883193E-1;1.987187415E-1;9.507674217E0;9.511269851E0
1.041065843E0;-1.556231081E-1;2.154781520E-1;9.512462616E0;9.516175409E0
1.043063656E0;-1.292868853E-1;2.466027737E-1;9.510068893E0;9.514144123E0
1.045061468E0;-1.101332754E-1;2.489969730E-1;9.505280495E0;9.509179045E0
1.047059281E0;-8.140286058E-2;2.298433632E-1;9.519645691E0;9.522767900E0
1.049057093E0;-5.027823523E-2;2.202665508E-1;9.498097420E0;9.500784170E0
1.051054906E0;-4.548983276E-2;2.178723514E-1;9.455001831E0;9.457621123E0
1.053052718E0;-4.788403213E-2;2.011129409E-1;9.478943825E0;9.481197990E0
1.055050531E0;-1.436521020E-2;2.011129409E-1;9.445425034E0;9.447576771E0
1.057048343E0;4.070143029E-2;2.657563984E-1;9.438241959E0;9.442070448E0
1.059046156E0;8.619125932E-2;3.522469103E-1;9.431059837E0;9.438029269E0
1.061043812E0;1.029506698E-1;3.666121364E-1;9.421483040E0;9.429175254E0
1.063041312E0;1.029506698E-1;3.043628931E-1;9.455001831E0;9.460459568E0
1.065038812E0;1.173158810E-1;2.370259613E-1;9.426271439E0;9.429980782E0
1.067036312E0;1.340752989E-1;1.963245422E-1;9.466972351E0;9.469956970E0
1.069033812E0;1.268926859E-1;1.651999205E-1;9.507674217E0;9.509955930E0
1.071031312E0;1.053448766E-1;1.388636976E-1;9.502885818E0;9.504484181E0
1.073028812E0;6.224924326E-2;1.149216816E-1;9.488520622E0;9.489420718E0
1.075026312E0;7.182605099E-3;1.053448766E-1;9.466972351E0;9.467561176E0
1.077023812E0;-4.788403213E-2;8.858546615E-2;9.471760750E0;9.472296024E0
1.079021312E0;-8.379705995E-2;5.985504389E-2;9.488520622E0;9.489079416E0
1.081018812E0;-8.858546615E-2;4.309562966E-2;9.481337547E0;9.481849308E0
1.083016312E0;-9.097966552E-2;4.548983276E-2;9.452607155E0;9.453154428E0
1.085013812E0;-1.101332754E-1;6.464344263E-2;9.466972351E0;9.467833628E0
1.087011312E0;-1.388636976E-1;9.816227108E-2;9.469367027E0;9.470893878E0
1.089008812E0;-1.436520964E-1;1.340752989E-1;9.443030357E0;9.445074613E0
1.091006312E0;-1.460463107E-1;1.436520964E-1;9.421483040E0;9.423709892E0
1.093003812E0;-1.628057212E-1;1.244984865E-1;9.457395554E0;9.459616072E0
1.095001312E0;-1.891419291E-1;9.097966552E-2;9.502885818E0;9.505203356E0
1.096998812E0;-2.298433632E-1;8.858546615E-2;9.536404610E0;9.539585328E0
1.098996312E0;-2.681505978E-1;1.244984865E-1;9.543587685E0;9.548165819E0
1.100993812E0;-2.876034677E-1;1.675941199E-1;9.447818756E0;9.453680912E0
1.102991312E0;-3.115454912E-1;1.963245422E-1;9.404723167E0;9.411929758E0
1.104988812E0;-3.306991160E-1;1.987187415E-1;9.476549149E0;9.484399549E0
1.106986312E0;-3.354875147E-1;2.035071403E-1;9.493309021E0;9.501414800E0
1.108983812E0;-3.498527110E-1;2.250549644E-1;9.488520622E0;9.497634982E0
1.110981312E0;-3.809773326E-1;2.681505978E-1;9.483732224E0;9.495168527E0
1.112978812E0;-4.049193561E-1;3.115454912E-1;9.423876762E0;9.437715482E0
1.114976312E0;-4.312555790E-1;3.450643122E-1;9.404723167E0;9.420927163E0
1.116973812E0;-4.599860013E-1;3.594295382E-1;9.423876762E0;9.441939946E0
1.118971312E0;-4.695627987E-1;3.378817141E-1;9.423876762E0;9.441615673E0
1.120968864E0;-4.623802006E-1;2.705447972E-1;9.457395554E0;9.472556181E0
1.122966468E0;-4.575918019E-1;2.154781520E-1;9.517251015E0;9.530681401E0
1.124964125E0;-4.504092038E-1;2.130839527E-1;9.502885818E0;9.515939896E0
1.126961833E0;-4.360439777E-1;2.226607651E-1;9.486125946E0;9.498752425E0
1.128959541E0;-4.288613796E-1;2.178723514E-1;9.502885818E0;9.515052776E0
1.130957250E0;-4.192845821E-1;2.202665508E-1;9.483732224E0;9.495551264E0
1.132955010E0;-3.905541599E-1;2.178723514E-1;9.493309021E0;9.503836966E0
1.134952823E0;-3.498527110E-1;2.082955539E-1;9.476549149E0;9.485292179E0
1.136950635E0;-3.091512918E-1;2.202665508E-1;9.476549149E0;9.484148651E0
1.138948448E0;-2.657563984E-1;2.418143749E-1;9.483732224E0;9.490536209E0
1.140946260E0;-2.370259613E-1;2.370259613E-1;9.457395554E0;9.463334152E0
1.142944073E0;-2.035071403E-1;2.202665508E-1;9.486125946E0;9.490864975E0
1.144941885E0;-1.747767180E-1;1.867477298E-1;9.529222488E0;9.532654554E0
1.146939698E0;-1.747767180E-1;1.532289088E-1;9.529222488E0;9.532056821E0
1.148937510E0;-1.699883193E-1;1.388636976E-1;9.469367027E0;9.471910634E0
1.150935323E0;-1.101332754E-1;1.460463107E-1;9.445425034E0;9.447196035E0
1.152933135E0;-5.267243832E-2;1.747767180E-1;9.474155426E0;9.475913799E0
1.154930948E0;-1.436521020E-2;1.867477298E-1;9.493309021E0;9.495156515E0
1.156928760E0;4.788403399E-3;1.723825186E-1;9.469367027E0;9.470937153E0
1.158926573E0;-4.788403399E-3;1.436520964E-1;9.474155426E0;9.475245637E0
1.160924385E0;-1.197100803E-2;9.816227108E-2;9.469367027E0;9.469883370E0
1.162922198E0;1.436521020E-2;4.070143029E-2;9.440636635E0;9.440735302E0
1.164920010E0;5.746084079E-2;-2.394201700E-3;9.445425034E0;9.445600116E0
1.166917823E0;8.379705995E-2;-2.394201700E-3;9.469367027E0;9.469738094E0
1.168915635E0;8.858546615E-2;1.675941236E-2;9.452607155E0;9.453037093E0
1.170913448E0;9.816227108E-2;2.394201607E-2;9.438241959E0;9.438782778E0
1.172911260E0;8.619125932E-2;9.576806799E-3;9.440636635E0;9.441034939E0
1.174909073E0;3.830722719E-2;-1.675941236E-2;9.459790230E0;9.459882637E0
1.176906885E0;-2.154781483E-2;-2.873042040E-2;9.483732224E0;9.483800221E0
1.178904698E0;-6.943184882E-2;-1.675941236E-2;9.469367027E0;9.469636400E0
1.180902510E0;-9.816227108E-2;-4.788403399E-3;9.469367027E0;9.469877014E0
1.182900323E0;-1.125274822E-1;-2.633621916E-2;9.469367027E0;9.470072224E0
1.184898135E0;-1.101332754E-1;-4.788403213E-2;9.490914345E0;9.491674105E0
1.186895948E0;-1.173158810E-1;-3.591302410E-2;9.526827812E0;9.527617799E0
1.188893760E0;-1.412578970E-1;0.000000000E0;9.507674217E0;9.508723511E0
1.190891573E0;-1.651999205E-1;4.788403213E-2;9.471760750E0;9.473322310E0
1.192889385E0;-1.771709323E-1;8.858546615E-2;9.457395554E0;9.459469730E0
1.194887198E0;-1.771709323E-1;1.173158810E-1;9.507674217E0;9.510048453E0
1.196885010E0;-1.675941199E-1;1.125274822E-1;9.541193008E0;9.543328258E0
1.198882823E0;-1.580173075E-1;7.661445439E-2;9.495702744E0;9.497326457E0
1.200880635E0;-1.412578970E-1;7.900865376E-2;9.478943825E0;9.480325532E0
1.202878448E0;-1.292868853E-1;1.197100878E-1;9.481337547E0;9.482974601E0
1.204876260E0;-1.292868853E-1;1.795651317E-1;9.469367027E0;9.471951786E0
1.206874073E0;-1.197100878E-1;2.513911724E-1;9.490914345E0;9.494997795E0
1.208871885E0;-1.077390760E-1;3.043628931E-1;9.474155426E0;9.479655348E0
1.210869698E0;-9.337386489E-2;3.139396906E-1;9.407117844E0;9.412818012E0
1.212867510E0;-7.422025502E-2;3.115454912E-1;9.447818756E0;9.453245394E0
1.214865323E0;-8.379705995E-2;3.139396906E-1;9.464578629E0;9.470154629E0
1.216863135E0;-1.364694983E-1;3.354875147E-1;9.445425034E0;9.452366363E0
1.218860948E0;-1.795651317E-1;3.498527110E-1;9.431059837E0;9.439254749E0
1.220858812E0;-1.651999205E-1;3.187280893E-1;9.476549149E0;9.483346581E0
1.222856729E0;-1.173158810E-1;2.801215947E-1;9.498097420E0;9.502951421E0
1.224854698E0;-8.858546615E-2;2.876034677E-1;9.481337547E0;9.486112208E0
1.226852718E0;-9.337386489E-2;3.163338900E-1;9.457395554E0;9.463145168E0
1.228850739E0;-1.173158810E-1;3.330933154E-1;9.478943825E0;9.485520028E0
1.230848760E0;-1.005564705E-1;3.402759135E-1;9.493309021E0;9.499937656E0
1.232846781E0;-5.506663769E-2;3.450643122E-1;9.452607155E0;9.459063576E0
1.234844802E0;-7.182605099E-3;3.330933154E-1;9.447818756E0;9.453691448E0
1.236842823E0;2.394201607E-2;3.115454912E-1;9.462183952E0;9.467341705E0
1.238840843E0;3.591302410E-2;2.947860956E-1;9.474155426E0;9.478808450E0
1.240838864E0;5.985504389E-2;2.681505978E-1;9.481337547E0;9.485317552E0
1.242836885E0;1.244984865E-1;2.346317619E-1;9.560346603E0;9.564035713E0
1.244834906E0;1.843535304E-1;2.202665508E-1;9.541193008E0;9.545515575E0
1.246832927E0;2.035071403E-1;2.322375625E-1;9.471760750E0;9.476792767E0
1.248830948E0;1.867477298E-1;2.561795712E-1;9.450213432E0;9.455529420E0
1.250828968E0;1.843535304E-1;2.609679997E-1;9.428665161E0;9.434077445E0
1.252826989E0;1.963245422E-1;2.250549644E-1;9.462183952E0;9.466895912E0
1.254825010E0;1.987187415E-1;1.675941199E-1;9.486125946E0;9.489687160E0
1.256823031E0;1.795651317E-1;1.364694983E-1;9.474155426E0;9.476839589E0
1.258821052E0;1.604115069E-1;1.268926859E-1;9.474155426E0;9.476362944E0
1.260819073E0;1.628057212E-1;1.101332754E-1;9.486125946E0;9.488162125E0
1.262817093E0;1.771709323E-1;8.858546615E-2;9.481337547E0;9.483406488E0
1.264815114E0;1.675941199E-1;8.140286058E-2;9.471760750E0;9.473593084E0
1.266813135E0;1.508347094E-1;1.029506698E-1;9.440636635E0;9.442402767E0
1.268811052E0;1.436520964E-1;1.388636976E-1;9.529222488E0;9.531316818E0
1.270808864E0;1.460463107E-1;1.843535304E-1;9.572318077E0;9.575207001E0
1.272806416E0;1.364694983E-1;2.370259613E-1;9.476549149E0;9.480495187E0
1.274803708E0;9.816227108E-2;2.705447972E-1;9.440636635E0;9.445022519E0
1.276801000E0;7.182604820E-2;2.876034677E-1;9.445425034E0;9.450075598E0
1.278798291E0;8.379705995E-2;2.971802950E-1;9.455001831E0;9.460042162E0
1.280795583E0;9.337386489E-2;3.067570925E-1;9.471760750E0;9.477186834E0
1.282792875E0;8.140286058E-2;3.235165179E-1;9.476549149E0;9.482419160E0
1.284790166E0;5.506663769E-2;3.354875147E-1;9.500492096E0;9.506573214E0
1.286787458E0;3.591302410E-2;3.187280893E-1;9.483732224E0;9.489154558E0
1.288784750E0;2.633621916E-2;2.753331959E-1;9.474155426E0;9.478191969E0
1.290782041E0;1.436521020E-2;2.202665508E-1;9.486125946E0;9.488693755E0
1.292779333E0;-2.394201700E-3;1.675941199E-1;9.502885818E0;9.504363861E0
1.294776625E0;-4.788403399E-3;1.388636976E-1;9.569923401E0;9.570932032E0
1.296773916E0;-1.675941236E-2;1.580173075E-1;9.498097420E0;9.499426559E0
1.298771208E0;-3.591302410E-2;1.891419291E-1;9.383175850E0;9.385150688E0
1.300768500E0;-4.070143029E-2;1.963245422E-1;9.443030357E0;9.445158668E0
1.302765791E0;-3.112462163E-2;2.011129409E-1;9.495702744E0;9.497883225E0
1.304763083E0;-3.351882473E-2;2.154781520E-1;9.471760750E0;9.474270740E0
1.306760375E0;-5.267243832E-2;2.130839527E-1;9.459790230E0;9.462336411E0
1.308757718E0;-5.506663769E-2;2.130839527E-1;9.431059837E0;9.433627444E0
1.310755114E0;-5.027823523E-2;2.322375625E-1;9.457395554E0;9.460380164E0
1.312752562E0;-4.548983276E-2;2.298433632E-1;9.486125946E0;9.489019062E0
1.314750062E0;-4.070143029E-2;2.011129409E-1;9.529222488E0;9.531431385E0
1.316747614E0;-5.027823523E-2;1.460463107E-1;9.481337547E0;9.482595589E0
1.318745218E0;-8.140286058E-2;8.858546615E-2;9.457395554E0;9.458160734E0
1.320742875E0;-1.221042871E-1;6.224924326E-2;9.469367027E0;9.470358828E0
1.322740583E0;-1.508347094E-1;6.224924326E-2;9.447818756E0;9.449227763E0
1.324738291E0;-1.699883193E-1;6.943184882E-2;9.423876762E0;9.425665496E0
1.326736000E0;-1.987187415E-1;7.422025502E-2;9.402329445E0;9.404722047E0
1.328733708E0;-2.609679997E-1;2.633621916E-2;9.450213432E0;9.453852750E0
1.330731416E0;-3.522469103E-1;-5.027823523E-2;9.493309021E0;9.499974840E0
1.332729125E0;-4.097077549E-1;-1.077390760E-1;9.459790230E0;9.469271321E0
1.334726833E0;-4.240729809E-1;-1.340752989E-1;9.507674217E0;9.518071396E0
1.336724541E0;-4.336497784E-1;-1.221042871E-1;9.531616211E0;9.542257028E0
1.338722250E0;-4.216787815E-1;-1.029506698E-1;9.490914345E0;9.500835065E0
1.340719958E0;-3.857657611E-1;-8.379705995E-2;9.483732224E0;9.491944693E0
1.342717666E0;-3.450643122E-1;-6.464344263E-2;9.462183952E0;9.468694382E0
1.344715375E0;-2.995744944E-1;-4.788403213E-2;9.452607155E0;9.457474281E0
1.346713083E0;-2.489969730E-1;-3.112462163E-2;9.481337547E0;9.484657607E0
1.348710791E0;-2.154781520E-1;-2.394201607E-2;9.445425034E0;9.447912898E0
1.350708500E0;-1.867477298E-1;2.394201700E-3;9.423876762E0;9.425727223E0
1.352706208E0;-1.460463107E-1;4.788403213E-2;9.421483040E0;9.422736602E0
1.354703916E0;-9.097966552E-2;7.900865376E-2;9.459790230E0;9.460557640E0
1.356701625E0;-5.506663769E-2;1.053448766E-1;9.488520622E0;9.489265171E0
1.358699333E0;-3.112462163E-2;1.268926859E-1;9.488520622E0;9.489420114E0
1.360697041E0;-1.197100803E-2;1.604115069E-1;9.498097420E0;9.499459445E0
1.362694750E0;9.576806799E-3;2.082955539E-1;9.483732224E0;9.486024227E0
1.364692458E0;4.309562966E-2;2.585737705E-1;9.471760750E0;9.475387556E0
1.366690166E0;8.619125932E-2;3.211222887E-1;9.500492096E0;9.506308354E0
1.368687875E0;1.101332754E-1;3.498527110E-1;9.488520622E0;9.495606871E0
1.370685583E0;8.858546615E-2;3.259107172E-1;9.493309021E0;9.499314783E0
1.372683291E0;5.027823523E-2;2.777273953E-1;9.512462616E0;9.516648855E0
1.374681000E0;2.154781483E-2;2.298433632E-1;9.486125946E0;9.488934489E0
1.376678708E0;1.675941236E-2;2.059013397E-1;9.486125946E0;9.488375082E0
1.378676416E0;4.548983276E-2;1.963245422E-1;9.519645691E0;9.521778549E0
1.380674125E0;5.985504389E-2;1.628057212E-1;9.495702744E0;9.497286924E0
1.382671833E0;3.830722719E-2;1.268926859E-1;9.505280495E0;9.506204631E0
1.384669541E0;-4.788403399E-3;7.900865376E-2;9.450213432E0;9.450544916E0
1.386667250E0;-3.351882473E-2;3.112462163E-2;9.452607155E0;9.452717825E0
1.388664958E0;-3.591302410E-2;-1.675941236E-2;9.476549149E0;9.476632017E0
1.390662666E0;-3.351882473E-2;-5.985504389E-2;9.474155426E0;9.474403790E0
1.392660375E0;-2.633621916E-2;-9.337386489E-2;9.488520622E0;9.489016592E0
1.394658083E0;-3.351882473E-2;-9.337386489E-2;9.490914345E0;9.491432837E0
1.396655791E0;-5.027823523E-2;-7.661445439E-2;9.457395554E0;9.457839517E0
1.398653500E0;-5.267243832E-2;-7.422025502E-2;9.419088364E0;9.419528047E0
1.400651208E0;-5.027823523E-2;-6.703764945E-2;9.440636635E0;9.441008528E0
1.402648916E0;-5.506663769E-2;-6.464344263E-2;9.433453560E0;9.433835762E0
1.404646625E0;-5.746084079E-2;-5.027823523E-2;9.426271439E0;9.426580657E0
1.406644333E0;-7.661445439E-2;-1.197100803E-2;9.438241959E0;9.438560502E0
1.408642041E0;-1.101332754E-1;2.633621916E-2;9.419088364E0;9.419769028E0
1.410639750E0;-1.197100878E-1;4.548983276E-2;9.435848236E0;9.436717213E0
1.412637458E0;-1.101332754E-1;6.703764945E-2;9.495702744E0;9.496578014E0
1.414635166E0;-8.379705995E-2;1.101332754E-1;9.524434090E0;9.525439413E0
1.416632875E0;-6.943184882E-2;1.604115069E-1;9.483732224E0;9.485342878E0
1.418630583E0;-7.900865376E-2;1.771709323E-1;9.464578629E0;9.466566459E0
1.420628291E0;-8.858546615E-2;1.651999205E-1;9.462183952E0;9.464040551E0
1.422626000E0;-8.379705995E-2;1.484405100E-1;9.495702744E0;9.497232604E0
1.424623708E0;-7.422025502E-2;1.508347094E-1;9.531616211E0;9.533098518E0
1.426621416E0;-5.985504389E-2;1.651999205E-1;9.493309021E0;9.494934955E0
1.428619125E0;-3.830722719E-2;1.987187415E-1;9.459790230E0;9.461954754E0
1.430616833E0;-3.830722719E-2;2.561795712E-1;9.500492096E0;9.504022595E0
1.432614541E0;-5.985504389E-2;2.777273953E-1;9.512462616E0;9.516704269E0
1.434612250E0;-7.661445439E-2;2.681505978E-1;9.531616211E0;9.535695156E0
1.436609958E0;-8.140286058E-2;2.489969730E-1;9.560346603E0;9.563935021E0
1.438607666E0;-8.379705995E-2;2.202665508E-1;9.524434090E0;9.527349266E0
1.440605375E0;-8.379705995E-2;1.675941199E-1;9.526827812E0;9.528670311E0
1.442603083E0;-7.422025502E-2;1.173158810E-1;9.529222488E0;9.530233622E0
1.444600791E0;-4.788403213E-2;8.858546615E-2;9.490914345E0;9.491448539E0
1.446598500E0;-9.576806799E-3;6.943184882E-2;9.431059837E0;9.431320276E0
1.448596208E0;1.675941236E-2;6.224924326E-2;9.404723167E0;9.404944109E0
1.450593916E0;2.873042040E-2;5.027823523E-2;9.440636635E0;9.440814234E0
1.452591625E0;3.112462163E-2;9.576806799E-3;9.440636635E0;9.440692799E0
1.454589333E0;3.591302410E-2;-2.633621916E-2;9.462183952E0;9.462288755E0
1.456587041E0;2.394201607E-2;-3.351882473E-2;9.474155426E0;9.474244971E0
1.458584750E0;-2.394201700E-3;-2.873042040E-2;9.438241959E0;9.438285991E0
1.460582458E0;-2.873042040E-2;-9.576806799E-3;9.423876762E0;9.423925423E0
1.462580166E0;-5.985504389E-2;2.633621916E-2;9.450213432E0;9.450439680E0
1.464577875E0;-9.097966552E-2;1.915361360E-2;9.495702744E0;9.496157894E0
1.466575583E0;-1.053448766E-1;-3.830722719E-2;9.457395554E0;9.458059824E0
1.468573291E0;-1.221042871E-1;-8.858546615E-2;9.443030357E0;9.444235235E0
1.470571000E0;-1.412578970E-1;-8.858546615E-2;9.505280495E0;9.506742789E0
1.472568708E0;-1.340752989E-1;-6.224924326E-2;9.512462616E0;9.513611101E0
1.474566416E0;-1.125274822E-1;-4.070143029E-2;9.438241959E0;9.439000493E0
1.476564125E0;-1.005564705E-1;-3.591302410E-2;9.462183952E0;9.462786402E0
1.478561833E0;-1.005564705E-1;-4.309562966E-2;9.486125946E0;9.486756785E0
1.480559541E0;-8.140286058E-2;-5.027823523E-2;9.474155426E0;9.474638535E0
1.482557250E0;-4.548983276E-2;-4.788403213E-2;9.466972351E0;9.467202739E0
1.484554958E0;-1.197100803E-2;-2.154781483E-2;9.476549149E0;9.476581207E0
1.486552666E0;1.436521020E-2;2.394201700E-3;9.495702744E0;9.495713911E0
1.488550375E0;3.351882473E-2;2.873042040E-2;9.493309021E0;9.493411669E0
1.490548083E0;5.506663769E-2;4.548983276E-2;9.483732224E0;9.484001189E0
1.492545791E0;7.422025502E-2;5.027823523E-2;9.510068893E0;9.510491412E0
1.494543500E0;8.140286058E-2;6.703764945E-2;9.555558205E0;9.556140072E0
1.496541208E0;1.053448766E-1;8.619125932E-2;9.569923401E0;9.570891305E0
1.498538916E0;1.364694983E-1;1.340752989E-1;9.502885818E0;9.504811360E0
1.500536625E0;1.388636976E-1;1.939303428E-1;9.395146370E0;9.398173621E0
1.502534333E0;1.364694983E-1;2.130839527E-1;9.466972351E0;9.470353435E0
1.504532041E0;1.484405100E-1;2.154781520E-1;9.534010887E0;9.537600800E0
1.506529750E0;1.963245422E-1;2.346317619E-1;9.459790230E0;9.464735949E0
1.508527458E0;2.585737705E-1;2.705447972E-1;9.419088364E0;9.426520062E0
1.510525166E0;2.828150690E-1;3.283049166E-1;9.438241959E0;9.448183939E0
1.512522875E0;2.657563984E-1;3.690063357E-1;9.414299965E0;9.425276440E0
1.514520583E0;2.466027737E-1;3.737947345E-1;9.431059837E0;9.441685500E0
1.516518291E0;2.346317619E-1;3.809773326E-1;9.416694641E0;9.427318482E0
1.518516000E0;2.059013397E-1;3.881599605E-1;9.407117844E0;9.417373819E0
1.520513708E0;1.939303428E-1;3.594295382E-1;9.524434090E0;9.533186419E0
1.522511416E0;2.106897533E-1;3.115454912E-1;9.579500198E0;9.586880348E0
1.524509125E0;2.418143749E-1;3.283049166E-1;9.557952881E0;9.566646308E0
1.526506833E0;2.418143749E-1;3.977367580E-1;9.534010887E0;9.545367060E0
1.528504541E0;2.059013397E-1;4.432265759E-1;9.466972351E0;9.479578612E0
1.530502250E0;1.747767180E-1;4.504092038E-1;9.457395554E0;9.469727874E0
1.532499958E0;1.412578970E-1;4.408323765E-1;9.469367027E0;9.480675022E0
1.534497666E0;1.053448766E-1;4.384381771E-1;9.455001831E0;9.465748000E0
1.536495375E0;6.224924326E-2;4.504092038E-1;9.483732224E0;9.494625864E0
1.538493083E0;2.154781483E-2;4.647744000E-1;9.488520622E0;9.499921218E0
1.540490791E0;0.000000000E0;4.671685994E-1;9.493309021E0;9.504796824E0
1.542488500E0;-1.197100803E-2;4.719569981E-1;9.493309021E0;9.505040919E0
1.544486208E0;-3.112462163E-2;5.006874204E-1;9.478943825E0;9.492209051E0
1.546483916E0;-5.985504389E-2;5.078700185E-1;9.447818756E0;9.461648579E0
1.548481625E0;-7.900865376E-2;5.126584172E-1;9.455001831E0;9.469219643E0
1.550479333E0;-8.140286058E-2;5.126584172E-1;9.474155426E0;9.488364776E0
1.552477041E0;-7.182604820E-2;5.030816197E-1;9.486125946E0;9.499728184E0
1.554474750E0;-8.140286058E-2;4.623802006E-1;9.529222488E0;9.540781053E0
1.556472458E0;-9.816227108E-2;4.001309574E-1;9.517251015E0;9.526164364E0
1.558470166E0;-1.364694983E-1;3.306991160E-1;9.416694641E0;9.423487878E0
1.560467875E0;-2.011129409E-1;2.657563984E-1;9.447818756E0;9.453695157E0
1.562465583E0;-2.489969730E-1;2.178723514E-1;9.519645691E0;9.525393532E0
1.564463291E0;-2.852092683E-1;1.891419291E-1;9.493309021E0;9.499475520E0
1.566461000E0;-3.306991160E-1;1.508347094E-1;9.431059837E0;9.438061383E0
1.568458708E0;-3.809773326E-1;1.029506698E-1;9.419088364E0;9.427352129E0
1.570456416E0;-4.025251567E-1;4.548983276E-2;9.457395554E0;9.466067108E0
1.572454125E0;-4.001309574E-1;-2.633621916E-2;9.478943825E0;9.487421905E0
1.574451833E0;-3.761889338E-1;-1.005564705E-1;9.502885818E0;9.510860560E0
1.576449541E0;-3.522469103E-1;-1.843535304E-1;9.498097420E0;9.506414608E0
1.578447250E0;-3.546411395E-1;-2.681505978E-1;9.490914345E0;9.501322549E0
1.580444958E0;-3.737947345E-1;-3.378817141E-1;9.488520622E0;9.501889820E0
1.582442666E0;-3.953425586E-1;-3.857657611E-1;9.495702744E0;9.511754915E0
1.584440375E0;-4.192845821E-1;-4.264671803E-1;9.505280495E0;9.524076391E0
1.586438083E0;-4.360439777E-1;-4.551976025E-1;9.507674217E0;9.528547016E0
1.588435791E0;-4.480150044E-1;-4.432265759E-1;9.500492096E0;9.521371608E0
1.590433500E0;-4.312555790E-1;-4.312555790E-1;9.452607155E0;9.472261861E0
1.592431208E0;-4.001309574E-1;-4.504092038E-1;9.464578629E0;9.483734594E0
1.594428916E0;-3.809773326E-1;-4.599860013E-1;9.476549149E0;9.495352264E0
1.596426625E0;-3.570353389E-1;-4.575918019E-1;9.471760750E0;9.489526658E0
1.598424333E0;-3.163338900E-1;-4.336497784E-1;9.483732224E0;9.498910261E0
1.600422041E0;-2.633621991E-1;-4.073135555E-1;9.459790230E0;9.472217015E0
1.602419750E0;-2.011129409E-1;-3.905541599E-1;9.481337547E0;9.491508871E0
1.604417458E0;-1.316810995E-1;-3.857657611E-1;9.471760750E0;9.480527772E0
1.606415166E0;-5.746084079E-2;-3.546411395E-1;9.455001831E0;9.461824967E0
1.608412875E0;2.394201700E-3;-2.876034677E-1;9.486125946E0;9.490485075E0
1.610410583E0;5.746084079E-2;-1.915361285E-1;9.474155426E0;9.476265555E0
1.612408291E0;1.149216816E-1;-1.077390760E-1;9.411906242E0;9.413224411E0
1.614406000E0;1.699883193E-1;-2.873042040E-2;9.399934769E0;9.401515576E0
1.616403708E0;2.106897533E-1;3.112462163E-2;9.414299965E0;9.416708700E0
1.618401416E0;2.322375625E-1;5.746084079E-2;9.483732224E0;9.486749334E0
1.620399125E0;2.489969730E-1;1.029506698E-1;9.603442192E0;9.607221256E0
1.622396833E0;2.561795712E-1;1.747767180E-1;9.572318077E0;9.577340353E0
1.624394541E0;2.418143749E-1;2.322375625E-1;9.476549149E0;9.482478170E0
1.626392250E0;2.154781520E-1;2.466027737E-1;9.462183952E0;9.467849223E0
1.628389958E0;1.795651317E-1;2.298433632E-1;9.493309021E0;9.497788573E0
1.630387666E0;1.628057212E-1;2.178723514E-1;9.550769806E0;9.554641697E0
1.632385375E0;1.532289088E-1;2.274491638E-1;9.510068893E0;9.514022418E0
1.634383083E0;1.412578970E-1;2.657563984E-1;9.433453560E0;9.438253351E0
1.636380791E0;1.244984865E-1;3.235165179E-1;9.457395554E0;9.463746270E0
1.638378500E0;8.140286058E-2;3.474585116E-1;9.519645691E0;9.526332344E0
1.640376208E0;5.746084079E-2;3.235165179E-1;9.543587685E0;9.549242409E0
1.642373916E0;5.985504389E-2;3.139396906E-1;9.517251015E0;9.522615588E0
1.644371625E0;5.506663769E-2;3.522469103E-1;9.395146370E0;9.401908611E0
1.646369333E0;4.788403213E-2;3.881599605E-1;9.342473984E0;9.350656724E0
1.648367041E0;5.985504389E-2;3.761889338E-1;9.462183952E0;9.469848251E0
1.650364750E0;8.140286058E-2;3.570353389E-1;9.493309021E0;9.500369300E0
1.652362458E0;8.379705995E-2;3.474585116E-1;9.423876762E0;9.430652289E0
1.654360166E0;7.182604820E-2;3.187280893E-1;9.459790230E0;9.465430670E0
1.656357875E0;7.422025502E-2;2.705447972E-1;9.553164482E0;9.557282812E0
1.658355583E0;8.140286058E-2;2.489969730E-1;9.531616211E0;9.535215441E0
1.660353291E0;7.422025502E-2;2.729389966E-1;9.493309021E0;9.497521809E0
1.662351000E0;3.830722719E-2;2.995744944E-1;9.459790230E0;9.464610056E0
1.664348708E0;4.788403399E-3;2.828150690E-1;9.414299965E0;9.418548249E0
1.666346416E0;-1.436521020E-2;2.059013397E-1;9.447818756E0;9.450073067E0
1.668344125E0;-2.633621916E-2;1.197100878E-1;9.471760750E0;9.472553816E0
1.670341833E0;-4.309562966E-2;1.053448766E-1;9.493309021E0;9.493991307E0
1.672339541E0;-8.140286058E-2;1.244984865E-1;9.469367027E0;9.470535265E0
1.674337250E0;-1.125274822E-1;1.197100878E-1;9.452607155E0;9.454034851E0
1.676334958E0;-1.244984865E-1;1.053448766E-1;9.505280495E0;9.506679478E0
1.678332666E0;-1.436520964E-1;8.619125932E-2;9.522039413E0;9.523512978E0
1.680330375E0;-1.699883193E-1;7.182604820E-2;9.505280495E0;9.507071699E0
1.682328083E0;-1.867477298E-1;7.900865376E-2;9.502885818E0;9.505048972E0
1.684325791E0;-1.963245422E-1;1.292868853E-1;9.469367027E0;9.472284324E0
1.686323500E0;-2.202665508E-1;1.915361285E-1;9.481337547E0;9.485829702E0
1.688321208E0;-2.466027737E-1;2.202665508E-1;9.471760750E0;9.477530374E0
1.690318916E0;-2.729389966E-1;2.178723514E-1;9.471760750E0;9.478196862E0
1.692316625E0;-2.899976671E-1;1.891419291E-1;9.502885818E0;9.509190933E0
1.694314333E0;-3.019686937E-1;1.795651317E-1;9.541193008E0;9.547659019E0
1.696312041E0;-3.235165179E-1;1.819593310E-1;9.481337547E0;9.488600203E0
1.698309750E0;-3.546411395E-1;1.771709323E-1;9.402329445E0;9.410683231E0
1.700307458E0;-3.953425586E-1;2.106897533E-1;9.416694641E0;9.427344476E0
1.702305166E0;-3.857657611E-1;2.394201756E-1;9.486125946E0;9.496984927E0
1.704302875E0;-3.474585116E-1;1.915361285E-1;9.486125946E0;9.494419359E0
1.706300583E0;-3.546411395E-1;1.556231081E-1;9.402329445E0;9.410302220E0
1.708298291E0;-3.905541599E-1;1.987187415E-1;9.431059837E0;9.441234630E0
1.710296000E0;-4.049193561E-1;2.298433632E-1;9.476549149E0;9.487980366E0
1.712293708E0;-3.953425586E-1;2.106897533E-1;9.486125946E0;9.496697920E0
1.714291416E0;-3.714005351E-1;1.819593310E-1;9.490914345E0;9.499921192E0
1.716289125E0;-3.642179370E-1;1.747767180E-1;9.474155426E0;9.482764504E0
1.718286833E0;-3.498527110E-1;1.819593310E-1;9.483732224E0;9.491927255E0
1.720284541E0;-2.995744944E-1;1.556231081E-1;9.493309021E0;9.499309427E0
1.722282250E0;-2.705447972E-1;1.340752989E-1;9.476549149E0;9.481358259E0
1.724279906E0;-2.609679997E-1;1.221042871E-1;9.493309021E0;9.497680239E0
1.726277510E0;-2.226607651E-1;1.244984865E-1;9.534010887E0;9.537423199E0
1.728275114E0;-1.819593310E-1;1.604115069E-1;9.500492096E0;9.503588328E0
1.730272718E0;-1.364694983E-1;1.771709323E-1;9.505280495E0;9.507910956E0
1.732270270E0;-9.337386489E-2;1.508347094E-1;9.488520622E0;9.490178786E0
1.734267770E0;-7.900865376E-2;1.125274822E-1;9.450213432E0;9.451213611E0
1.736265270E0;-8.140286058E-2;5.985504389E-2;9.490914345E0;9.491452162E0
1.738262770E0;-6.703764945E-2;3.591302410E-2;9.557952881E0;9.558255440E0
1.740260270E0;-6.224924326E-2;6.703764945E-2;9.488520622E0;9.488961619E0
1.742257770E0;-7.900865376E-2;1.340752989E-1;9.435848236E0;9.437131476E0
1.744255270E0;-1.053448766E-1;1.915361285E-1;9.474155426E0;9.476676879E0
1.746252770E0;-1.221042871E-1;1.891419291E-1;9.541193008E0;9.543848707E0
1.748250270E0;-1.388636976E-1;1.460463107E-1;9.514857292E0;9.516991223E0
1.750247770E0;-1.628057212E-1;1.316810995E-1;9.476549149E0;9.478862241E0
1.752245270E0;-1.819593310E-1;1.292868853E-1;9.452607155E0;9.455242267E0
1.754242770E0;-1.723825186E-1;1.077390760E-1;9.423876762E0;9.426068994E0
1.756240270E0;-1.292868853E-1;7.661445439E-2;9.483732224E0;9.484922865E0
1.758237770E0;-1.005564705E-1;4.309562966E-2;9.464578629E0;9.465210904E0
1.760235270E0;-9.097966552E-2;2.394201607E-2;9.445425034E0;9.445893530E0
1.762232770E0;-7.182604820E-2;4.788403213E-2;9.464578629E0;9.464972291E0
1.764230270E0;-1.915361360E-2;9.337386489E-2;9.438241959E0;9.438723262E0
1.766227770E0;1.675941236E-2;1.197100878E-1;9.459790230E0;9.460562487E0
1.768225270E0;4.788403399E-3;1.244984865E-1;9.474155426E0;9.474974609E0
1.770222770E0;-3.591302410E-2;1.412578970E-1;9.455001831E0;9.456125166E0
1.772220270E0;-4.788403213E-2;1.556231081E-1;9.455001831E0;9.456403706E0
1.774217770E0;-4.309562966E-2;1.604115069E-1;9.495702744E0;9.497155347E0
1.776215270E0;-3.830722719E-2;1.747767180E-1;9.581894875E0;9.583565293E0
1.778212770E0;-3.591302410E-2;2.250549644E-1;9.510068893E0;9.512799264E0
1.780210270E0;-4.070143029E-2;2.828150690E-1;9.383175850E0;9.387525233E0
1.782207770E0;-4.070143029E-2;3.043628931E-1;9.399934769E0;9.404949071E0
1.784205270E0;-6.464344263E-2;3.043628931E-1;9.440636635E0;9.445762839E0
1.786202770E0;-1.340752989E-1;3.402759135E-1;9.498097420E0;9.505136426E0
1.788200270E0;-2.059013397E-1;3.785831332E-1;9.498097420E0;9.507869117E0
1.790197770E0;-2.322375625E-1;3.570353389E-1;9.486125946E0;9.495682913E0
1.792195270E0;-2.082955539E-1;2.828150690E-1;9.498097420E0;9.504589733E0
1.794192770E0;-1.843535304E-1;2.250549644E-1;9.493309021E0;9.497765639E0
1.796190270E0;-1.819593310E-1;1.891419291E-1;9.483732224E0;9.487363214E0
1.798187770E0;-1.675941199E-1;1.436520964E-1;9.481337547E0;9.483906653E0
1.800185270E0;-1.412578970E-1;1.053448766E-1;9.514857292E0;9.516488881E0
1.802182770E0;-1.340752989E-1;6.224924326E-2;9.476549149E0;9.477701985E0
1.804180270E0;-1.173158810E-1;4.788403399E-3;9.478943825E0;9.479670985E0
1.806177770E0;-1.005564705E-1;-4.788403213E-2;9.495702744E0;9.496355884E0
1.808175323E0;-9.816227108E-2;-7.900865376E-2;9.469367027E0;9.470205388E0
1.810172927E0;-9.576806426E-2;-9.816227108E-2;9.440636635E0;9.441632667E0
1.812170583E0;-6.943184882E-2;-1.412578970E-1;9.416694641E0;9.418010010E0
1.814168291E0;-3.830722719E-2;-1.963245422E-1;9.433453560E0;9.435574007E0
1.816166000E0;-4.070143029E-2;-2.154781520E-1;9.438241959E0;9.440789094E0
1.818163708E0;-7.900865376E-2;-2.011129409E-1;9.490914345E0;9.493373683E0
1.820161416E0;-1.149216816E-1;-1.795651317E-1;9.560346603E0;9.562723347E0
1.822159125E0;-1.149216816E-1;-1.197100878E-1;9.531616211E0;9.533060636E0
1.824156833E0;-1.173158810E-1;-4.070143029E-2;9.462183952E0;9.462998720E0
1.826154541E0;-1.484405100E-1;1.915361360E-2;9.421483040E0;9.422671814E0
1.828152250E0;-1.795651317E-1;5.267243832E-2;9.495702744E0;9.497546452E0
1.830149958E0;-1.795651317E-1;2.394201607E-2;9.524434090E0;9.526156706E0
1.832147666E0;-1.867477298E-1;-2.154781483E-2;9.488520622E0;9.490382638E0
1.834145375E0;-2.370259613E-1;-4.309562966E-2;9.462183952E0;9.465250324E0
1.836143083E0;-3.115454912E-1;-4.548983276E-2;9.423876762E0;9.429134804E0
1.838140791E0;-3.402759135E-1;-5.985504389E-2;9.433453560E0;9.439778408E0
1.840138500E0;-3.187280893E-1;-7.661445439E-2;9.502885818E0;9.508538071E0
1.842136208E0;-3.211222887E-1;-6.464344263E-2;9.505280495E0;9.510922962E0
1.844133916E0;-3.426701128E-1;-2.154781483E-2;9.486125946E0;9.492337572E0
1.846131625E0;-3.498527110E-1;9.576806799E-3;9.452607155E0;9.459084029E0
1.848129333E0;-3.426701128E-1;1.197100803E-2;9.464578629E0;9.470787440E0
1.850127041E0;-3.306991160E-1;-1.436521020E-2;9.517251015E0;9.523005573E0
1.852124750E0;-3.378817141E-1;-3.591302410E-2;9.495702744E0;9.501780064E0
1.854122458E0;-3.474585116E-1;-2.394201607E-2;9.507674217E0;9.514051170E0
1.856120166E0;-3.618237376E-1;-7.182605099E-3;9.519645691E0;9.526522035E0
1.858117875E0;-3.666121364E-1;1.197100803E-2;9.529222488E0;9.536279620E0
1.860115583E0;-3.594295382E-1;3.351882473E-2;9.519645691E0;9.526487663E0
1.862113291E0;-3.594295382E-1;8.140286058E-2;9.502885818E0;9.510029174E0
1.864111000E0;-3.618237376E-1;1.604115069E-1;9.505280495E0;9.513516992E0
1.866108708E0;-3.522469103E-1;2.418143749E-1;9.519645691E0;9.529229043E0
1.868106416E0;-3.450643122E-1;2.971802950E-1;9.505280495E0;9.516183205E0
1.870104125E0;-3.378817141E-1;3.306991160E-1;9.481337547E0;9.493117910E0
1.872101833E0;-3.019686937E-1;3.546411395E-1;9.478943825E0;9.490380997E0
1.874099541E0;-2.250549644E-1;3.690063357E-1;9.450213432E0;9.460092459E0
1.876097250E0;-1.436520964E-1;3.737947345E-1;9.466972351E0;9.475437928E0
1.878094958E0;-6.464344263E-2;3.690063357E-1;9.498097420E0;9.505482578E0
1.880092666E0;2.394201607E-2;3.594295382E-1;9.464578629E0;9.471431329E0
1.882090375E0;1.316810995E-1;3.570353389E-1;9.471760750E0;9.479402188E0
1.884088083E0;2.298433632E-1;3.546411395E-1;9.457395554E0;9.466833101E0
1.886085791E0;2.828150690E-1;3.426701128E-1;9.419088364E0;9.429561643E0
1.888083500E0;2.923918962E-1;3.354875147E-1;9.431059837E0;9.441553609E0
1.890081208E0;3.115454912E-1;3.163338900E-1;9.493309021E0;9.503685806E0
1.892078916E0;3.163338900E-1;2.971802950E-1;9.469367027E0;9.479308791E0
1.894076625E0;2.995744944E-1;2.729389966E-1;9.447818756E0;9.456506745E0
1.896074333E0;2.899976671E-1;2.298433632E-1;9.462183952E0;9.469416654E0
1.898072041E0;2.729389966E-1;2.178723514E-1;9.459790230E0;9.466234481E0
1.900069750E0;2.466027737E-1;2.106897533E-1;9.476549149E0;9.482098231E0
1.902067458E0;2.346317619E-1;1.723825186E-1;9.526827812E0;9.531275673E0
1.904065166E0;2.298433632E-1;1.316810995E-1;9.517251015E0;9.520936654E0
1.906062875E0;2.370259613E-1;1.125274822E-1;9.512462616E0;9.516080536E0
1.908060583E0;2.561795712E-1;1.101332754E-1;9.526827812E0;9.530907904E0
1.910058291E0;2.705447972E-1;1.101332754E-1;9.512462616E0;9.516946403E0
1.912056000E0;2.657563984E-1;1.149216816E-1;9.464578629E0;9.469006393E0
1.914053708E0;2.418143749E-1;1.388636976E-1;9.462183952E0;9.466291907E0
1.916051416E0;1.963245422E-1;1.699883193E-1;9.486125946E0;9.489679911E0
1.918049125E0;1.532289088E-1;1.891419291E-1;9.471760750E0;9.474888151E0
1.920046833E0;1.197100878E-1;1.843535304E-1;9.490914345E0;9.493459424E0
1.922044541E0;1.149216816E-1;1.556231081E-1;9.526827812E0;9.528791828E0
1.924042250E0;1.340752989E-1;1.316810995E-1;9.481337547E0;9.483199765E0
1.926039958E0;1.508347094E-1;1.364694983E-1;9.447818756E0;9.450008163E0
1.928037666E0;1.508347094E-1;1.436520964E-1;9.476549149E0;9.478838051E0
1.930035375E0;1.340752989E-1;1.340752989E-1;9.476549149E0;9.478445871E0
1.932033083E0;9.337386489E-2;1.340752989E-1;9.443030357E0;9.444443721E0
1.934030791E0;6.224924326E-2;1.364694983E-1;9.507674217E0;9.508857340E0
1.936028500E0;8.379705995E-2;1.005564705E-1;9.526827812E0;9.527726996E0
1.938026208E0;1.101332754E-1;3.351882473E-2;9.438241959E0;9.438944015E0
1.940023916E0;1.221042871E-1;-9.576806799E-3;9.435848236E0;9.436643106E0
1.942021625E0;1.340752989E-1;-1.915361360E-2;9.457395554E0;9.458365277E0
1.944019333E0;1.484405100E-1;9.576806799E-3;9.433453560E0;9.434626244E0
1.946017041E0;1.268926859E-1;4.309562966E-2;9.419088364E0;9.420041645E0
1.948014750E0;7.661445439E-2;4.309562966E-2;9.481337547E0;9.481745024E0
1.950012458E0;6.224924326E-2;1.197100803E-2;9.529222488E0;9.529433326E0
1.952010166E0;6.224924326E-2;9.576806799E-3;9.490914345E0;9.491123315E0
1.954007875E0;3.112462163E-2;3.591302410E-2;9.471760750E0;9.471879971E0
1.956005583E0;7.182605099E-3;4.070143029E-2;9.490914345E0;9.491004335E0
1.958003291E0;2.633621916E-2;1.436521020E-2;9.519645691E0;9.519692959E0
1.960001000E0;4.788403399E-3;-9.576806799E-3;9.500492096E0;9.500498130E0
1.961998708E0;-6.703764945E-2;-1.197100803E-2;9.459790230E0;9.460035335E0
1.963996416E0;-1.221042871E-1;-9.576806799E-3;9.478943825E0;9.479735081E0
1.965994125E0;-1.125274822E-1;-3.351882473E-2;9.502885818E0;9.503611147E0
1.967991833E0;-7.661445439E-2;-3.591302410E-2;9.476549149E0;9.476926890E0
1.969989541E0;-6.943184882E-2;9.576806799E-3;9.447818756E0;9.448078733E0
1.971987250E0;-9.816227108E-2;5.506663769E-2;9.469367027E0;9.470035906E0
1.973984958E0;-1.005564705E-1;6.943184882E-2;9.524434090E0;9.525217956E0
1.975982666E0;-7.422025502E-2;8.619125932E-2;9.502885818E0;9.503566513E0
1.977980375E0;-5.746084079E-2;1.388636976E-1;9.450213432E0;9.451408297E0
1.979978083E0;-6.943184882E-2;2.202665508E-1;9.478943825E0;9.481756914E0
1.981975791E0;-8.379705995E-2;2.705447972E-1;9.557952881E0;9.562148279E0
1.983973500E0;-8.140286058E-2;3.043628931E-1;9.545981407E0;9.551179206E0
1.985971208E0;-8.379705995E-2;3.450643122E-1;9.431059837E0;9.437742367E0
1.987968916E0;-8.619125932E-2;3.594295382E-1;9.419088364E0;9.426337790E0
1.989966625E0;-9.337386489E-2;3.546411395E-1;9.462183952E0;9.469287944E0
1.991964333E0;-9.097966552E-2;3.594295382E-1;9.483732224E0;9.490976967E0
1.993962041E0;-1.005564705E-1;3.809773326E-1;9.478943825E0;9.487129775E0
1.995959750E0;-1.460463107E-1;3.977367580E-1;9.443030357E0;9.452531216E0
1.997957458E0;-1.843535304E-1;3.881599605E-1;9.471760750E0;9.481503366E0
1.999955166E0;-1.699883193E-1;3.402759135E-1;9.541193008E0;9.548772055E0
2.001952875E0;-1.604115069E-1;3.330933154E-1;9.500492096E0;9.507682845E0
2.003950583E0;-1.819593310E-1;3.785831332E-1;9.414299965E0;9.423665859E0
2.005948291E0;-1.723825186E-1;3.953425586E-1;9.488520622E0;9.498317486E0
2.007946000E0;-1.388636976E-1;3.642179370E-1;9.486125946E0;9.494130992E0
2.009943708E0;-1.173158810E-1;3.594295382E-1;9.488520622E0;9.496050558E0
2.011941416E0;-1.197100878E-1;3.761889338E-1;9.483732224E0;9.491945296E0
2.013939125E0;-1.101332754E-1;3.714005351E-1;9.433453560E0;9.441404226E0
2.015936729E0;-6.943184882E-2;3.498527110E-1;9.464578629E0;9.471296971E0
2.017934229E0;-2.154781483E-2;3.211222887E-1;9.541193008E0;9.546619708E0
2.019931729E0;-2.154781483E-2;3.091512918E-1;9.498097420E0;9.503151763E0
2.021929229E0;-3.830722719E-2;3.139396906E-1;9.500492096E0;9.505754869E0
2.023926729E0;-3.830722719E-2;3.163338900E-1;9.493309021E0;9.498655207E0
2.025924229E0;-3.830722719E-2;3.235165179E-1;9.474155426E0;9.479754818E0
2.027921729E0;-3.351882473E-2;3.235165179E-1;9.507674217E0;9.513235804E0
2.029919229E0;-1.675941236E-2;2.995744944E-1;9.514857292E0;9.519586916E0
2.031916729E0;-4.788403399E-3;2.513911724E-1;9.471760750E0;9.475097475E0
2.033914229E0;-2.394201700E-3;2.082955539E-1;9.478943825E0;9.481232452E0
2.035911729E0;-7.182605099E-3;1.819593310E-1;9.464578629E0;9.466330303E0
2.037909229E0;-9.576806799E-3;1.604115069E-1;9.488520622E0;9.489881304E0
2.039906729E0;-2.154781483E-2;1.364694983E-1;9.490914345E0;9.491919897E0
2.041904229E0;-4.788403213E-2;1.029506698E-1;9.443030357E0;9.443712938E0
2.043901729E0;-7.182604820E-2;9.097966552E-2;9.409511566E0;9.410225512E0
2.045899229E0;-8.140286058E-2;9.337386489E-2;9.462183952E0;9.462994782E0
2.047896729E0;-6.703764945E-2;5.267243832E-2;9.512462616E0;9.512844656E0
2.049894229E0;-3.591302410E-2;4.788403399E-3;9.500492096E0;9.500561180E0
2.051891729E0;-2.154781483E-2;-1.915361360E-2;9.464578629E0;9.464622538E0
2.053889229E0;-5.027823523E-2;-1.915361360E-2;9.440636635E0;9.440789947E0
2.055886729E0;-9.337386489E-2;-1.915361360E-2;9.426271439E0;9.426753353E0
2.057884229E0;-1.005564705E-1;-9.576806799E-3;9.462183952E0;9.462723100E0
2.059881729E0;-1.005564705E-1;1.436521020E-2;9.455001831E0;9.455547450E0
2.061879229E0;-1.173158810E-1;4.309562966E-2;9.476549149E0;9.477373266E0
2.063876729E0;-1.388636976E-1;3.591302410E-2;9.505280495E0;9.506362614E0
2.065874229E0;-1.508347094E-1;1.675941236E-2;9.474155426E0;9.475370865E0
2.067871729E0;-1.651999205E-1;2.633621916E-2;9.478943825E0;9.480419856E0
2.069869229E0;-1.867477298E-1;2.394201607E-2;9.466972351E0;9.468844356E0
2.071866729E0;-2.106897533E-1;3.351882473E-2;9.495702744E0;9.498098982E0
2.073864229E0;-2.130839527E-1;6.464344263E-2;9.522039413E0;9.524642678E0
2.075861729E0;-1.867477298E-1;1.101332754E-1;9.488520622E0;9.490997190E0
2.077859229E0;-1.580173075E-1;1.532289088E-1;9.500492096E0;9.503041546E0
2.079856729E0;-1.580173075E-1;1.484405100E-1;9.526827812E0;9.529294424E0
2.081854229E0;-1.747767180E-1;1.029506698E-1;9.543587685E0;9.545743116E0
2.083851729E0;-1.699883193E-1;6.943184882E-2;9.483732224E0;9.485509670E0
2.085849229E0;-1.604115069E-1;1.077390760E-1;9.462183952E0;9.464156841E0
2.087846729E0;-1.292868853E-1;1.604115069E-1;9.471760750E0;9.474001195E0
2.089844229E0;-5.985504389E-2;1.412578970E-1;9.466972351E0;9.468215350E0
2.091841729E0;-7.182605099E-3;9.337386489E-2;9.505280495E0;9.505741820E0
2.093839229E0;-4.309562966E-2;9.097966552E-2;9.478943825E0;9.479478391E0
2.095836729E0;-1.101332754E-1;1.628057212E-1;9.426271439E0;9.428320544E0
2.097834229E0;-1.125274822E-1;2.322375625E-1;9.471760750E0;9.475275638E0
2.099831729E0;-9.337386489E-2;2.489969730E-1;9.476549149E0;9.480279634E0
2.101829229E0;-1.029506698E-1;2.370259613E-1;9.416694641E0;9.420239812E0
2.103826729E0;-1.268926859E-1;2.298433632E-1;9.395146370E0;9.398814023E0
2.105824229E0;-1.532289088E-1;2.298433632E-1;9.404723167E0;9.408779141E0
2.107821729E0;-1.843535304E-1;2.178723514E-1;9.517251015E0;9.521529366E0
2.109819229E0;-2.035071403E-1;2.011129409E-1;9.536404610E0;9.540695701E0
2.111816729E0;-2.035071403E-1;1.891419291E-1;9.457395554E0;9.461475598E0
2.113814229E0;-2.130839527E-1;1.819593310E-1;9.447818756E0;9.451972980E0
2.115811729E0;-2.250549644E-1;1.819593310E-1;9.471760750E0;9.476181226E0
2.117809229E0;-2.418143749E-1;1.675941199E-1;9.466972351E0;9.471543036E0
2.119806729E0;-2.609679997E-1;1.388636976E-1;9.452607155E0;9.457228423E0
2.121804229E0;-2.947860956E-1;1.412578970E-1;9.524434090E0;9.530041834E0
2.123801729E0;-3.139396906E-1;1.628057212E-1;9.524434090E0;9.530997249E0
2.125799229E0;-3.283049166E-1;1.963245422E-1;9.455001831E0;9.462736764E0
2.127796729E0;-3.354875147E-1;2.035071403E-1;9.443030357E0;9.451179258E0
2.129794229E0;-3.283049166E-1;1.747767180E-1;9.483732224E0;9.491022490E0
2.131791729E0;-3.378817141E-1;1.723825186E-1;9.517251015E0;9.524806909E0
2.133789229E0;-3.714005351E-1;1.795651317E-1;9.486125946E0;9.495091756E0
2.135786729E0;-3.977367580E-1;1.604115069E-1;9.457395554E0;9.467114504E0
2.137784229E0;-3.977367580E-1;1.364694983E-1;9.447818756E0;9.457171760E0
2.139781729E0;-3.905541599E-1;1.292868853E-1;9.471760750E0;9.480690869E0
2.141779229E0;-3.857657611E-1;1.316810995E-1;9.531616211E0;9.540328230E0
2.143776729E0;-3.857657611E-1;1.388636976E-1;9.541193008E0;9.549998030E0
2.145774229E0;-3.761889338E-1;1.388636976E-1;9.469367027E0;9.477853826E0
2.147771729E0;-3.714005351E-1;1.173158810E-1;9.426271439E0;9.434314740E0
2.149769229E0;-3.833715618E-1;1.005564705E-1;9.407117844E0;9.415463424E0
2.151766781E0;-3.737947345E-1;9.097966552E-2;9.435848236E0;9.443687402E0
2.153764385E0;-3.594295382E-1;8.619125932E-2;9.493309021E0;9.500501813E0
2.155762041E0;-3.283049166E-1;8.379705995E-2;9.510068893E0;9.516103006E0
2.157759750E0;-2.876034677E-1;9.097966552E-2;9.428665161E0;9.433489268E0
2.159757510E0;-2.442085743E-1;1.197100878E-1;9.426271439E0;9.430194143E0
2.161755323E0;-2.178723514E-1;1.364694983E-1;9.495702744E0;9.499182222E0
2.163753135E0;-2.106897533E-1;1.436520964E-1;9.478943825E0;9.482373233E0
2.165750948E0;-2.250549644E-1;1.508347094E-1;9.483732224E0;9.487601263E0
2.167748812E0;-2.226607651E-1;1.221042871E-1;9.464578629E0;9.467984785E0
2.169746729E0;-1.867477298E-1;5.027823523E-2;9.514857292E0;9.516822574E0
2.171744645E0;-1.675941199E-1;1.436521020E-2;9.548376083E0;9.549857589E0
2.173742562E0;-1.891419291E-1;5.506663769E-2;9.512462616E0;9.514502195E0
2.175740479E0;-2.322375625E-1;1.173158810E-1;9.495702744E0;9.499266703E0
2.177738395E0;-2.322375625E-1;1.651999205E-1;9.505280495E0;9.509552176E0
2.179736312E0;-1.628057212E-1;1.675941199E-1;9.490914345E0;9.493790001E0
2.181734229E0;-6.224924326E-2;1.244984865E-1;9.495702744E0;9.496722879E0
2.183732145E0;3.830722719E-2;4.548983276E-2;9.469367027E0;9.469553773E0
2.185730062E0;1.125274822E-1;-2.873042040E-2;9.462183952E0;9.462896651E0
2.187727979E0;1.436520964E-1;-4.788403213E-2;9.464578629E0;9.465789847E0
2.189725895E0;1.268926859E-1;7.182605099E-3;9.464578629E0;9.465431948E0
2.191723812E0;9.337386489E-2;5.027823523E-2;9.476549149E0;9.477142520E0
2.193721729E0;7.900865376E-2;6.224924326E-2;9.493309021E0;9.493841873E0
2.195719645E0;1.029506698E-1;1.005564705E-1;9.474155426E0;9.475248360E0
2.197717562E0;1.436520964E-1;1.340752989E-1;9.471760750E0;9.473798806E0
2.199715479E0;1.580173075E-1;1.460463107E-1;9.483732224E0;9.486172879E0
2.201713395E0;1.963245422E-1;1.005564705E-1;9.455001831E0;9.457574454E0
2.203711312E0;2.609679997E-1;3.351882473E-2;9.452607155E0;9.456268283E0
2.205709229E0;2.876034677E-1;5.027823523E-2;9.416694641E0;9.421219752E0
2.207707093E0;2.561795712E-1;1.436520964E-1;9.435848236E0;9.440418202E0
2.209704906E0;2.178723514E-1;2.250549644E-1;9.493309021E0;9.498475365E0
2.211702718E0;1.915361285E-1;2.681505978E-1;9.505280495E0;9.510990911E0
2.213700531E0;1.675941199E-1;2.995744944E-1;9.455001831E0;9.461231014E0
2.215698239E0;1.508347094E-1;3.283049166E-1;9.443030357E0;9.449939553E0
2.217695843E0;1.723825186E-1;3.354875147E-1;9.512462616E0;9.519937638E0
2.219693448E0;2.154781520E-1;3.211222887E-1;9.524434090E0;9.532281736E0
2.221691052E0;2.561795712E-1;3.115454912E-1;9.519645691E0;9.528186745E0
2.223688656E0;2.394201756E-1;3.259107172E-1;9.498097420E0;9.506702605E0
2.225686260E0;1.651999205E-1;3.402759135E-1;9.500492096E0;9.508019183E0
2.227683864E0;9.337386489E-2;3.737947345E-1;9.488520622E0;9.496339546E0
2.229681468E0;6.703764945E-2;3.977367580E-1;9.478943825E0;9.487521521E0
2.231679073E0;1.053448766E-1;3.690063357E-1;9.514857292E0;9.522592741E0
2.233676677E0;1.436520964E-1;3.570353389E-1;9.517251015E0;9.525028978E0
2.235674281E0;1.244984865E-1;3.977367580E-1;9.510068893E0;9.519196645E0
2.237671885E0;1.197100878E-1;4.073135555E-1;9.464578629E0;9.474095390E0
2.239669437E0;1.412578970E-1;3.761889338E-1;9.457395554E0;9.465928510E0
2.241666937E0;1.819593310E-1;3.235165179E-1;9.495702744E0;9.502954421E0
2.243664437E0;2.370259613E-1;3.283049166E-1;9.517251015E0;9.525861237E0
2.245661937E0;2.633621991E-1;3.618237376E-1;9.407117844E0;9.417756749E0
2.247659437E0;2.801215947E-1;3.067570925E-1;9.361627579E0;9.370839821E0
2.249656937E0;2.947860956E-1;1.747767180E-1;9.397541046E0;9.403787719E0
2.251654437E0;3.067570925E-1;8.619125932E-2;9.435848236E0;9.441226657E0
2.253651937E0;3.163338900E-1;7.182604820E-2;9.447818756E0;9.453385920E0
2.255649437E0;2.899976671E-1;1.029506698E-1;9.443030357E0;9.448043174E0
2.257646937E0;2.681505978E-1;1.101332754E-1;9.452607155E0;9.457051132E0
2.259644437E0;2.585737705E-1;9.816227108E-2;9.469367027E0;9.473405308E0
2.261641937E0;2.130839527E-1;1.244984865E-1;9.481337547E0;9.484548821E0
2.263639437E0;1.795651317E-1;1.699883193E-1;9.488520622E0;9.491741846E0
2.265636937E0;1.723825186E-1;1.819593310E-1;9.464578629E0;9.467896997E0
2.267634437E0;1.628057212E-1;2.106897533E-1;9.498097420E0;9.501828796E0
2.269631937E0;1.556231081E-1;2.657563984E-1;9.531616211E0;9.536590198E0
2.271629437E0;1.484405100E-1;3.019686937E-1;9.510068893E0;9.516019653E0
2.273626937E0;1.699883193E-1;3.067570925E-1;9.498097420E0;9.504569982E0
2.275624437E0;1.915361285E-1;2.947860956E-1;9.524434090E0;9.530919665E0
2.277621937E0;1.939303428E-1;2.753331959E-1;9.517251015E0;9.523207665E0
2.279619437E0;1.699883193E-1;2.394201756E-1;9.514857292E0;9.519386920E0
2.281616937E0;1.197100878E-1;2.035071403E-1;9.519645691E0;9.522573168E0
2.283614437E0;9.816227108E-2;2.513911724E-1;9.522039413E0;9.525863108E0
2.285611937E0;1.149216816E-1;3.115454912E-1;9.481337547E0;9.487150746E0
2.287609437E0;1.244984865E-1;3.187280893E-1;9.478943825E0;9.485118001E0
2.289606937E0;1.053448766E-1;3.211222887E-1;9.474155426E0;9.480181333E0
2.291604437E0;7.422025502E-2;3.426701128E-1;9.466972351E0;9.473462775E0
2.293601937E0;3.351882473E-2;3.785831332E-1;9.469367027E0;9.476991115E0
2.295599437E0;4.788403399E-3;3.666121364E-1;9.471760750E0;9.478854313E0
2.297596937E0;0.000000000E0;2.777273953E-1;9.443030357E0;9.447113572E0
2.299594437E0;9.576806799E-3;1.963245422E-1;9.440636635E0;9.442682623E0
2.301591937E0;1.675941236E-2;1.484405100E-1;9.435848236E0;9.437030645E0
2.303589437E0;2.394201607E-2;1.197100878E-1;9.409511566E0;9.410303483E0
2.305586937E0;1.675941236E-2;6.943184882E-2;9.464578629E0;9.464848138E0
2.307584437E0;9.576806799E-3;-1.197100803E-2;9.522039413E0;9.522051754E0
2.309581937E0;2.394201700E-3;-5.267243832E-2;9.462183952E0;9.462330858E0
2.311579489E0;-7.182605099E-3;-6.464344263E-2;9.411906242E0;9.412130974E0
2.313577093E0;2.873042040E-2;-1.221042871E-1;9.464578629E0;9.465409844E0
2.315574750E0;9.097966552E-2;-1.580173075E-1;9.493309021E0;9.495059923E0
2.317572458E0;1.197100878E-1;-1.149216816E-1;9.493309021E0;9.494759274E0
2.319570218E0;1.149216816E-1;-5.985504389E-2;9.462183952E0;9.463071107E0
2.321568031E0;1.149216816E-1;-1.436521020E-2;9.455001831E0;9.455711130E0
2.323565895E0;1.340752989E-1;0.000000000E0;9.536404610E0;9.537347066E0
2.325563812E0;1.460463107E-1;-9.576806799E-3;9.502885818E0;9.504012843E0
2.327561781E0;1.053448766E-1;9.576806799E-3;9.407117844E0;9.407712548E0
2.329559802E0;3.591302410E-2;6.464344263E-2;9.498097420E0;9.498385290E0
2.331557823E0;-1.436521020E-2;1.484405100E-1;9.567529678E0;9.568691922E0
2.333555843E0;-3.830722719E-2;2.059013397E-1;9.548376083E0;9.550672680E0
2.335553864E0;-9.337386489E-2;2.370259613E-1;9.505280495E0;9.508693773E0
2.337551885E0;-1.651999205E-1;2.513911724E-1;9.447818756E0;9.452606402E0
2.339549906E0;-2.154781520E-1;2.585737705E-1;9.466972351E0;9.472953960E0
2.341547927E0;-2.489969730E-1;2.923918962E-1;9.483732224E0;9.491505118E0
2.343545948E0;-2.753331959E-1;2.947860956E-1;9.483732224E0;9.492306574E0
2.345543968E0;-3.019686937E-1;2.418143749E-1;9.507674217E0;9.515541409E0
2.347541989E0;-3.163338900E-1;1.915361285E-1;9.483732224E0;9.490939369E0
2.349540010E0;-3.139396906E-1;1.747767180E-1;9.462183952E0;9.469003653E0
2.351538031E0;-2.971802950E-1;1.699883193E-1;9.462183952E0;9.468375642E0
2.353536052E0;-2.899976671E-1;1.891419291E-1;9.450213432E0;9.456553666E0
2.355534073E0;-3.019686937E-1;2.274491638E-1;9.435848236E0;9.443418351E0
2.357532093E0;-3.259107172E-1;2.561795712E-1;9.419088364E0;9.428206159E0
2.359530114E0;-3.498527110E-1;2.322375625E-1;9.402329445E0;9.411701769E0
2.361528135E0;-3.690063357E-1;1.460463107E-1;9.476549149E0;9.484855242E0
2.363526156E0;-3.522469103E-1;1.436521020E-2;9.493309021E0;9.499852652E0
2.365524177E0;-3.019686937E-1;-6.464344263E-2;9.483732224E0;9.488758652E0
2.367522198E0;-2.923918962E-1;-7.182604820E-2;9.483732224E0;9.488510362E0
2.369520218E0;-3.283049166E-1;-3.830722719E-2;9.490914345E0;9.496668187E0
2.371518239E0;-3.666121364E-1;-2.633621916E-2;9.512462616E0;9.519561076E0
2.373516260E0;-3.953425586E-1;-3.351882473E-2;9.455001831E0;9.463322824E0
2.375514229E0;-4.144961834E-1;-1.436521020E-2;9.455001831E0;9.464093885E0
2.377512145E0;-4.384381771E-1;2.394201700E-3;9.471760750E0;9.481903051E0
2.379509593E0;-4.791396260E-1;2.873042040E-2;9.452607155E0;9.464786434E0
2.381506573E0;-4.935048223E-1;2.873042040E-2;9.445425034E0;9.458352209E0
2.383503552E0;-4.839280248E-1;1.197100803E-2;9.457395554E0;9.469776148E0
2.385500531E0;-4.719569981E-1;-1.197100803E-2;9.450213432E0;9.461998765E0
2.387497510E0;-4.743511975E-1;-4.070143029E-2;9.459790230E0;9.471763133E0
2.389494489E0;-4.839280248E-1;-3.351882473E-2;9.522039413E0;9.534387470E0
2.391491520E0;-4.671685994E-1;-1.915361360E-2;9.512462616E0;9.523946576E0
2.393488604E0;-4.432265759E-1;-9.576806799E-3;9.464578629E0;9.474955943E0
2.395485739E0;-4.288613796E-1;-9.576806799E-3;9.431059837E0;9.440810529E0
2.397482927E0;-4.288613796E-1;-4.070143029E-2;9.431059837E0;9.440893408E0
2.399480166E0;-4.432265759E-1;-5.985504389E-2;9.502885818E0;9.513404822E0
2.401477458E0;-4.575918019E-1;-2.154781483E-2;9.500492096E0;9.511530089E0
2.403474802E0;-4.647744000E-1;1.675941236E-2;9.455001831E0;9.466433106E0
2.405472198E0;-4.791396260E-1;-2.394201700E-3;9.435848236E0;9.448005739E0
2.407469645E0;-4.839280248E-1;-4.309562966E-2;9.481337547E0;9.493777186E0
2.409467145E0;-4.767454267E-1;-8.619125932E-2;9.505280495E0;9.517619052E0
2.411464750E0;-4.432265759E-1;-1.029506698E-1;9.490914345E0;9.501815813E0
2.413462458E0;-4.025251567E-1;-9.576806426E-2;9.471760750E0;9.480793729E0
2.415460218E0;-3.761889338E-1;-8.858546615E-2;9.426271439E0;9.434190942E0
2.417458031E0;-3.498527110E-1;-8.858546615E-2;9.445425034E0;9.452317090E0
2.419455895E0;-3.091512918E-1;-1.029506698E-1;9.469367027E0;9.474971518E0
2.421453812E0;-2.681505978E-1;-1.101332754E-1;9.490914345E0;9.495340393E0
2.423451781E0;-2.466027737E-1;-1.053448766E-1;9.512462616E0;9.516241668E0
2.425449802E0;-2.442085743E-1;-7.900865376E-2;9.524434090E0;9.527891945E0
2.427447875E0;-2.561795712E-1;-4.309562966E-2;9.500492096E0;9.504043101E0
2.429446000E0;-2.537853718E-1;4.788403399E-3;9.510068893E0;9.513455750E0
2.431444177E0;-2.250549644E-1;5.267243832E-2;9.502885818E0;9.505696345E0
2.433442406E0;-2.154781520E-1;9.816227108E-2;9.462183952E0;9.465146159E0
2.435440687E0;-2.466027737E-1;1.651999205E-1;9.455001831E0;9.459659802E0
2.437439020E0;-2.753331959E-1;1.939303428E-1;9.457395554E0;9.463389879E0
2.439437406E0;-2.394201756E-1;1.819593310E-1;9.466972351E0;9.471747289E0
2.441435843E0;-1.675941199E-1;1.316810995E-1;9.478943825E0;9.481339765E0
2.443434281E0;-1.292868853E-1;6.224924326E-2;9.455001831E0;9.456090614E0
2.445432718E0;-1.125274822E-1;-1.915361360E-2;9.433453560E0;9.434144124E0
2.447431156E0;-1.125274822E-1;-4.309562966E-2;9.478943825E0;9.479709684E0
2.449429593E0;-1.077390760E-1;-5.506663769E-2;9.488520622E0;9.489292052E0
2.451428031E0;-1.005564705E-1;-1.101332754E-1;9.505280495E0;9.506450348E0
2.453426468E0;-1.197100878E-1;-1.532289088E-1;9.500492096E0;9.502481764E0
2.455424906E0;-1.077390760E-1;-1.628057212E-1;9.502885818E0;9.504890967E0
2.457423343E0;-1.077390760E-1;-1.173158810E-1;9.490914345E0;9.492250830E0
2.459421677E0;-1.699883193E-1;-3.830722719E-2;9.471760750E0;9.473363456E0
2.461419906E0;-2.633621991E-1;-9.576806799E-3;9.464578629E0;9.468246933E0
2.463417927E0;-3.259107172E-1;1.197100803E-2;9.512462616E0;9.518051593E0
2.465415739E0;-2.852092683E-1;5.267243832E-2;9.507674217E0;9.512096916E0
2.467413395E0;-2.226607651E-1;1.173158810E-1;9.455001831E0;9.458350832E0
2.469410895E0;-2.322375625E-1;2.059013397E-1;9.481337547E0;9.486416148E0
2.471408395E0;-2.394201756E-1;2.777273953E-1;9.490914345E0;9.497995032E0
2.473405895E0;-2.035071403E-1;3.115454912E-1;9.478943825E0;9.486245400E0
2.475403395E0;-1.628057212E-1;2.947860956E-1;9.455001831E0;9.460996997E0
2.477400895E0;-1.675941199E-1;2.681505978E-1;9.488520622E0;9.493788292E0
2.479398395E0;-1.723825186E-1;2.489969730E-1;9.543587685E0;9.548391546E0
2.481395895E0;-1.316810995E-1;1.987187415E-1;9.498097420E0;9.501088551E0
2.483393395E0;-6.943184882E-2;1.388636976E-1;9.507674217E0;9.508941735E0
2.485390895E0;-4.548983276E-2;1.053448766E-1;9.500492096E0;9.501185028E0
2.487388395E0;-6.703764945E-2;1.316810995E-1;9.466972351E0;9.468125446E0
2.489385895E0;-9.576806426E-2;2.035071403E-1;9.478943825E0;9.481611820E0
2.491383395E0;-1.292868853E-1;2.729389966E-1;9.481337547E0;9.486146345E0
2.493380895E0;-1.747767180E-1;3.091512918E-1;9.462183952E0;9.468846106E0
2.495378395E0;-1.939303428E-1;3.019686937E-1;9.464578629E0;9.471380189E0
2.497375895E0;-2.011129409E-1;2.876034677E-1;9.423876762E0;9.430409079E0
2.499373395E0;-2.202665508E-1;2.298433632E-1;9.385569572E0;9.390967018E0
2.501370895E0;-2.394201756E-1;1.628057212E-1;9.447818756E0;9.452254068E0
2.503368395E0;-2.537853718E-1;1.316810995E-1;9.481337547E0;9.485647506E0
2.505365895E0;-2.537853718E-1;1.149216816E-1;9.469367027E0;9.473464303E0
2.507363448E0;-2.442085743E-1;1.029506698E-1;9.421483040E0;9.425209777E0
2.509361052E0;-2.346317619E-1;7.661445439E-2;9.399934769E0;9.403174756E0
2.511358708E0;-2.322375625E-1;4.548983276E-2;9.459790230E0;9.462749854E0
2.513356416E0;-2.537853718E-1;1.675941236E-2;9.478943825E0;9.482355400E0
2.515354177E0;-2.729389966E-1;1.915361360E-2;9.471760750E0;9.475711807E0
2.517351989E0;-2.633621991E-1;3.830722719E-2;9.455001831E0;9.458746572E0
2.519349854E0;-2.154781520E-1;2.633621916E-2;9.447818756E0;9.450312359E0
2.521347770E0;-1.556231081E-1;-4.309562966E-2;9.476549149E0;9.477924855E0
2.523345687E0;-1.268926859E-1;-1.077390760E-1;9.471760750E0;9.473223378E0
2.525343604E0;-1.340752989E-1;-1.149216816E-1;9.457395554E0;9.459044023E0
2.527341520E0;-1.604115069E-1;-8.140286058E-2;9.428665161E0;9.430380957E0
2.529339437E0;-1.771709323E-1;-4.309562966E-2;9.512462616E0;9.514209993E0
2.531337354E0;-1.867477298E-1;-4.548983276E-2;9.517251015E0;9.519191716E0
2.533335270E0;-1.915361285E-1;-6.943184882E-2;9.421483040E0;9.423685560E0
2.535333187E0;-1.532289088E-1;-1.173158810E-1;9.514857292E0;9.516814142E0
2.537331104E0;-8.379705995E-2;-1.867477298E-1;9.562741280E0;9.564931649E0
2.539329020E0;-3.591302410E-2;-2.274491638E-1;9.486125946E0;9.488920293E0
2.541326937E0;-4.070143029E-2;-2.202665508E-1;9.450213432E0;9.452867706E0
2.543324854E0;-3.112462163E-2;-2.059013397E-1;9.457395554E0;9.459687879E0
2.545322770E0;2.873042040E-2;-1.915361285E-1;9.522039413E0;9.524008931E0
2.547320687E0;8.379705995E-2;-1.628057212E-1;9.510068893E0;9.511831475E0
2.549318604E0;1.053448766E-1;-1.173158810E-1;9.490914345E0;9.492223957E0
2.551316520E0;8.858546615E-2;-6.224924326E-2;9.435848236E0;9.436469376E0
2.553314437E0;5.746084079E-2;4.788403399E-3;9.402329445E0;9.402506244E0
2.555312354E0;5.027823523E-2;4.309562966E-2;9.356839180E0;9.357073505E0
2.557310270E0;8.140286058E-2;2.633621916E-2;9.416694641E0;9.417083306E0
2.559308187E0;8.619125932E-2;1.915361360E-2;9.548376083E0;9.548784301E0
2.561306104E0;5.746084079E-2;5.267243832E-2;9.512462616E0;9.512781988E0
2.563304020E0;2.873042040E-2;1.149216816E-1;9.452607155E0;9.453349378E0
2.565301937E0;0.000000000E0;1.723825186E-1;9.433453560E0;9.435028447E0
2.567299854E0;-1.915361360E-2;2.226607651E-1;9.469367027E0;9.472003831E0
2.569297770E0;-1.197100803E-2;2.729389966E-1;9.488520622E0;9.492452929E0
2.571295687E0;2.394201607E-2;3.402759135E-1;9.502885818E0;9.509006247E0
2.573293604E0;5.027823523E-2;4.097077549E-1;9.493309021E0;9.502278912E0
2.575291520E0;4.788403213E-2;4.144961834E-1;9.445425034E0;9.454636642E0
2.577289437E0;5.985504389E-2;3.570353389E-1;9.474155426E0;9.481069449E0
2.579287302E0;1.005564705E-1;3.115454912E-1;9.524434090E0;9.530058600E0
2.581285114E0;1.436520964E-1;2.947860956E-1;9.517251015E0;9.522898805E0
2.583282927E0;1.340752989E-1;3.019686937E-1;9.459790230E0;9.465558223E0
2.585280739E0;1.029506698E-1;2.585737705E-1;9.443030357E0;9.447130864E0
2.587278500E0;9.097966552E-2;1.795651317E-1;9.505280495E0;9.507411752E0
2.589276208E0;9.816227108E-2;1.532289088E-1;9.526827812E0;9.528565637E0
2.591273864E0;9.097966552E-2;1.460463107E-1;9.493309021E0;9.494868245E0
2.593271468E0;6.464344263E-2;1.244984865E-1;9.483732224E0;9.484769662E0
2.595269073E0;7.182605099E-3;1.005564705E-1;9.488520622E0;9.489056159E0
2.597266677E0;-6.703764945E-2;9.816227108E-2;9.522039413E0;9.522781341E0
2.599264281E0;-1.268926859E-1;1.053448766E-1;9.550769806E0;9.552193632E0
2.601261885E0;-1.675941199E-1;1.340752989E-1;9.493309021E0;9.495734840E0
2.603259489E0;-1.987187415E-1;1.436520964E-1;9.452607155E0;9.455786963E0
2.605257093E0;-2.082955539E-1;1.029506698E-1;9.443030357E0;9.445888429E0
2.607254698E0;-2.226607651E-1;6.224924326E-2;9.462183952E0;9.465008079E0
2.609252302E0;-2.466027737E-1;2.154781483E-2;9.466972351E0;9.470208167E0
2.611249906E0;-2.753331959E-1;-3.112462163E-2;9.459790230E0;9.463847437E0
2.613247510E0;-2.681505978E-1;-1.053448766E-1;9.481337547E0;9.485713678E0
2.615245114E0;-2.322375625E-1;-1.651999205E-1;9.495702744E0;9.499978731E0
2.617242718E0;-2.011129409E-1;-1.939303428E-1;9.486125946E0;9.490239241E0
2.619240323E0;-1.747767180E-1;-1.843535304E-1;9.488520622E0;9.491920603E0
2.621237927E0;-1.484405100E-1;-1.484405100E-1;9.526827812E0;9.529140430E0
2.623235531E0;-1.316810995E-1;-1.149216816E-1;9.522039413E0;9.523643289E0
2.625233135E0;-1.580173075E-1;-6.464344263E-2;9.483732224E0;9.485268849E0
2.627230739E0;-2.011129409E-1;-1.436521020E-2;9.493309021E0;9.495449907E0
2.629228343E0;-1.771709323E-1;-1.197100803E-2;9.514857292E0;9.516514180E0
2.631225948E0;-8.140286058E-2;-3.591302410E-2;9.526827812E0;9.527243270E0
2.633223552E0;-1.915361360E-2;-5.267243832E-2;9.478943825E0;9.479109519E0
2.635221156E0;0.000000000E0;-4.548983276E-2;9.447818756E0;9.447928269E0
2.637218760E0;1.436521020E-2;-2.633621916E-2;9.462183952E0;9.462231508E0
2.639216364E0;1.436521020E-2;2.394201700E-3;9.462183952E0;9.462195160E0
2.641213968E0;4.788403399E-3;0.000000000E0;9.464578629E0;9.464579840E0
2.643211573E0;7.182605099E-3;-4.070143029E-2;9.447818756E0;9.447909157E0
2.645209177E0;2.394201607E-2;-5.267243832E-2;9.421483040E0;9.421660696E0
2.647206781E0;4.070143029E-2;-2.394201700E-3;9.459790230E0;9.459878093E0
2.649204385E0;7.182605099E-3;8.379705995E-2;9.419088364E0;9.419463846E0
2.651201989E0;-3.112462163E-2;1.388636976E-1;9.421483040E0;9.422557749E0
2.653199593E0;-7.182605099E-3;8.140286058E-2;9.534010887E0;9.534361101E0
2.655197198E0;3.830722719E-2;-2.633621916E-2;9.596260071E0;9.596372668E0
2.657194802E0;4.788403213E-2;-6.224924326E-2;9.541193008E0;9.541516225E0
2.659192406E0;2.633621916E-2;-4.070143029E-2;9.337685585E0;9.337811429E0
2.661190010E0;2.394201607E-2;-3.591302410E-2;9.229647636E0;9.229748559E0
2.663187614E0;3.830722719E-2;-6.703764945E-2;9.390357971E0;9.390675392E0
2.665185218E0;2.154781483E-2;-9.337386489E-2;9.553164482E0;9.553645095E0
2.667182823E0;-3.112462163E-2;-9.337386489E-2;9.514857292E0;9.515366347E0
2.669180427E0;-8.619125932E-2;-7.182604820E-2;9.375992775E0;9.376664035E0
2.671178083E0;-1.268926859E-1;-4.070143029E-2;9.308955193E0;9.309908976E0
2.673175791E0;-1.532289088E-1;-9.576806799E-3;9.385569572E0;9.386825183E0
2.675173552E0;-1.987187415E-1;3.351882473E-2;9.474155426E0;9.476298522E0
2.677171364E0;-2.298433632E-1;6.224924326E-2;9.490914345E0;9.493901097E0
2.679169229E0;-2.466027737E-1;6.703764945E-2;9.476549149E0;9.479994237E0
2.681167145E0;-2.394201756E-1;2.873042040E-2;9.526827812E0;9.529879098E0
2.683165062E0;-2.513911724E-1;1.197100803E-2;9.534010887E0;9.537332144E0
2.685162979E0;-2.681505978E-1;2.633621916E-2;9.488520622E0;9.492345439E0
2.687160895E0;-2.609679997E-1;5.267243832E-2;9.474155426E0;9.477895321E0
2.689158812E0;-2.489969730E-1;9.097966552E-2;9.435848236E0;9.439571427E0
2.691156729E0;-2.226607651E-1;1.077390760E-1;9.411906242E0;9.415156113E0
2.693154645E0;-1.843535304E-1;1.053448766E-1;9.433453560E0;9.435842826E0
2.695152562E0;-1.508347094E-1;1.077390760E-1;9.452607155E0;9.454424406E0
2.697150479E0;-1.149216816E-1;9.576806426E-2;9.421483040E0;9.422670597E0
2.699148395E0;-5.985504389E-2;5.506663769E-2;9.402329445E0;9.402681211E0
2.701146312E0;-9.576806799E-3;1.436521020E-2;9.407117844E0;9.407133687E0
2.703144229E0;1.675941236E-2;1.915361360E-2;9.457395554E0;9.457429799E0
2.705142145E0;9.576806799E-3;7.661445439E-2;9.483732224E0;9.484046519E0
2.707140062E0;4.788403399E-3;1.244984865E-1;9.524434090E0;9.525248948E0
2.709137979E0;4.309562966E-2;1.029506698E-1;9.557952881E0;9.558604466E0
2.711135895E0;9.576806426E-2;1.029506698E-1;9.574711800E0;9.575744170E0
2.713133812E0;1.364694983E-1;1.436520964E-1;9.569923401E0;9.571974391E0
2.715131729E0;1.580173075E-1;1.723825186E-1;9.536404610E0;9.539271360E0
2.717129645E0;1.436520964E-1;2.059013397E-1;9.550769806E0;9.554069037E0
2.719127562E0;1.125274822E-1;2.298433632E-1;9.545981407E0;9.549411052E0
2.721125479E0;9.576806426E-2;2.418143749E-1;9.548376083E0;9.551917689E0
2.723123395E0;9.337386489E-2;2.681505978E-1;9.586683273E0;9.590887321E0
2.725121312E0;1.244984865E-1;2.777273953E-1;9.560346603E0;9.565189991E0
2.727119125E0;1.604115069E-1;3.019686937E-1;9.502885818E0;9.509035483E0
2.729116833E0;1.556231081E-1;3.163338900E-1;9.416694641E0;9.423291550E0
2.731114541E0;1.292868853E-1;3.091512918E-1;9.443030357E0;9.448974122E0
2.733112250E0;1.268926859E-1;3.115454912E-1;9.586683273E0;9.592583517E0
2.735109854E0;1.699883193E-1;3.115454912E-1;9.541193008E0;9.547791401E0
2.737107354E0;2.226607651E-1;2.705447972E-1;9.469367027E0;9.475847413E0
2.739104854E0;2.418143749E-1;2.011129409E-1;9.505280495E0;9.510482527E0
2.741102354E0;2.202665508E-1;1.532289088E-1;9.505280495E0;9.509066922E0
2.743099854E0;1.891419291E-1;1.388636976E-1;9.519645691E0;9.522537050E0
2.745097354E0;1.771709323E-1;1.005564705E-1;9.471760750E0;9.473951279E0
2.747094854E0;1.843535304E-1;1.915361360E-2;9.423876762E0;9.425699248E0
2.749092354E0;1.723825186E-1;-6.464344263E-2;9.452607155E0;9.454399850E0
2.751089854E0;1.316810995E-1;-1.364694983E-1;9.428665161E0;9.430572122E0
2.753087354E0;6.464344263E-2;-1.867477298E-1;9.402329445E0;9.404406014E0
2.755084854E0;-3.112462163E-2;-2.154781520E-1;9.390357971E0;9.392881475E0
2.757082354E0;-1.077390760E-1;-2.753331959E-1;9.411906242E0;9.416549007E0
2.759079854E0;-1.436520964E-1;-3.354875147E-1;9.435848236E0;9.442903141E0
2.761077354E0;-1.628057212E-1;-3.833715618E-1;9.411906242E0;9.421117692E0
2.763074854E0;-1.987187415E-1;-4.025251567E-1;9.419088364E0;9.429779491E0
2.765072354E0;-2.346317619E-1;-3.977367580E-1;9.510068893E0;9.521273914E0
2.767069854E0;-2.657563984E-1;-3.857657611E-1;9.512462616E0;9.523990062E0
2.769067354E0;-3.043628931E-1;-3.546411395E-1;9.440636635E0;9.452196950E0
2.771064906E0;-3.474585116E-1;-3.306991160E-1;9.455001831E0;9.467161610E0
2.773062510E0;-3.714005351E-1;-3.570353389E-1;9.462183952E0;9.476198486E0
2.775060166E0;-3.809773326E-1;-3.857657611E-1;9.435848236E0;9.451412111E0
2.777057875E0;-3.905541599E-1;-3.809773326E-1;9.507674217E0;9.523315877E0
2.779055635E0;-4.432265759E-1;-3.354875147E-1;9.531616211E0;9.547811753E0
2.781053448E0;-5.102642179E-1;-2.442085743E-1;9.483732224E0;9.500588628E0
2.783051312E0;-5.533598661E-1;-1.723825186E-1;9.493309021E0;9.510985177E0
2.785049229E0;-5.701192617E-1;-1.053448766E-1;9.512462616E0;9.530114298E0
2.787047198E0;-5.773018599E-1;-1.915361360E-2;9.455001831E0;9.472629198E0
2.789045218E0;-5.725134611E-1;1.915361360E-2;9.411906242E0;9.429322226E0
2.791043291E0;-5.318120718E-1;7.182605099E-3;9.466972351E0;9.481900715E0
2.793041416E0;-4.719569981E-1;4.788403399E-3;9.488520622E0;9.500252099E0
2.795039541E0;-4.001309574E-1;2.154781483E-2;9.474155426E0;9.482625698E0
2.797037666E0;-3.570353389E-1;2.873042040E-2;9.411906242E0;9.418719594E0
2.799035791E0;-3.067570925E-1;-1.675941236E-2;9.431059837E0;9.436062232E0
2.801033916E0;-2.322375625E-1;-5.267243832E-2;9.476549149E0;9.479540729E0
2.803032041E0;-1.388636976E-1;-1.915361360E-2;9.493309021E0;9.494343903E0
2.805030166E0;-5.506663769E-2;5.506663769E-2;9.481337547E0;9.481657363E0
2.807028291E0;0.000000000E0;1.364694983E-1;9.466972351E0;9.467955926E0
2.809026416E0;3.351882473E-2;2.178723514E-1;9.402329445E0;9.404913124E0
2.811024541E0;9.816227108E-2;2.777273953E-1;9.378387451E0;9.383012284E0
2.813022666E0;1.963245422E-1;2.777273953E-1;9.423876762E0;9.430012146E0
2.815020739E0;2.753331959E-1;2.250549644E-1;9.502885818E0;9.509537159E0
2.817018760E0;3.235165179E-1;1.723825186E-1;9.545981407E0;9.553017308E0
2.819016573E0;3.594295382E-1;1.628057212E-1;9.510068893E0;9.518251187E0
2.821014177E0;4.168903828E-1;1.675941199E-1;9.478943825E0;9.489586999E0
2.823011781E0;4.551976025E-1;1.651999205E-1;9.476549149E0;9.488913512E0
2.825009385E0;4.432265759E-1;1.915361285E-1;9.493309021E0;9.505580048E0
2.827006989E0;3.977367580E-1;2.585737705E-1;9.505280495E0;9.517111547E0
2.829004593E0;3.905541599E-1;2.947860956E-1;9.486125946E0;9.498737646E0
2.831002198E0;4.288613796E-1;2.609679997E-1;9.500492096E0;9.513746709E0
2.832999802E0;4.504092038E-1;2.394201756E-1;9.512462616E0;9.526129093E0
2.834997406E0;4.264671803E-1;2.466027737E-1;9.534010887E0;9.546729847E0
2.836995010E0;3.809773326E-1;2.561795712E-1;9.536404610E0;9.547449114E0
2.838992614E0;3.450643122E-1;2.657563984E-1;9.464578629E0;9.474594686E0
2.840990218E0;3.570353389E-1;2.947860956E-1;9.452607155E0;9.463939724E0
2.842987823E0;3.881599605E-1;3.450643122E-1;9.502885818E0;9.517067637E0
2.844985427E0;4.144961834E-1;3.522469103E-1;9.524434090E0;9.539954387E0
2.846983031E0;4.097077549E-1;3.163338900E-1;9.431059837E0;9.445253688E0
2.848980635E0;3.737947345E-1;2.801215947E-1;9.411906242E0;9.423490316E0
2.850978239E0;3.306991160E-1;2.418143749E-1;9.466972351E0;9.475832501E0
2.852975843E0;3.115454912E-1;1.987187415E-1;9.493309021E0;9.500498192E0
2.854973448E0;3.091512918E-1;1.460463107E-1;9.464578629E0;9.470752487E0
2.856971052E0;2.995744944E-1;1.077390760E-1;9.517251015E0;9.522574204E0
2.858968656E0;2.852092683E-1;1.125274822E-1;9.529222488E0;9.534153764E0
2.860966260E0;2.657563984E-1;1.292868853E-1;9.455001831E0;9.459619505E0
2.862963864E0;2.513911724E-1;1.388636976E-1;9.474155426E0;9.478507355E0
2.864961468E0;2.346317619E-1;1.412578970E-1;9.500492096E0;9.504438748E0
2.866959073E0;1.891419291E-1;1.221042871E-1;9.464578629E0;9.467255819E0
2.868956677E0;1.268926859E-1;5.746084079E-2;9.474155426E0;9.475179393E0
2.870954281E0;8.140286058E-2;-4.548983276E-2;9.534010887E0;9.534466915E0
2.872951885E0;5.027823523E-2;-1.029506698E-1;9.522039413E0;9.522728671E0
2.874949489E0;4.548983276E-2;-1.029506698E-1;9.478943825E0;9.479612028E0
2.876947093E0;3.112462163E-2;-1.077390760E-1;9.469367027E0;9.470031064E0
2.878944698E0;-9.576806799E-3;-1.244984865E-1;9.481337547E0;9.482159737E0
2.880942302E0;-4.788403213E-2;-1.149216816E-1;9.498097420E0;9.498913331E0
2.882939906E0;-8.379705995E-2;-1.005564705E-1;9.505280495E0;9.506181717E0
2.884937510E0;-1.197100878E-1;-1.005564705E-1;9.531616211E0;9.532898284E0
2.886935114E0;-1.460463107E-1;-1.101332754E-1;9.519645691E0;9.521402887E0
2.888932718E0;-1.364694983E-1;-1.197100878E-1;9.493309021E0;9.495044528E0
2.890930323E0;-1.244984865E-1;-1.197100878E-1;9.500492096E0;9.502061905E0
2.892927927E0;-1.484405100E-1;-1.268926859E-1;9.447818756E0;9.449836802E0
2.894925583E0;-1.939303428E-1;-1.436520964E-1;9.438241959E0;9.441327034E0
2.896923291E0;-1.843535304E-1;-1.675941199E-1;9.505280495E0;9.508545172E0
2.898921052E0;-1.412578970E-1;-1.556231081E-1;9.476549149E0;9.478879475E0
2.900918864E0;-1.005564705E-1;-1.029506698E-1;9.486125946E0;9.487217501E0
2.902916729E0;-4.548983276E-2;-4.309562966E-2;9.483732224E0;9.483939237E0
2.904914645E0;-1.436521020E-2;1.675941236E-2;9.404723167E0;9.404749071E0
2.906912614E0;-1.197100803E-2;7.900865376E-2;9.414299965E0;9.414639106E0
2.908910635E0;7.182605099E-3;1.005564705E-1;9.505280495E0;9.505815087E0
2.910908656E0;2.394201607E-2;1.077390760E-1;9.510068893E0;9.510709295E0
2.912906677E0;2.394201607E-2;1.484405100E-1;9.488520622E0;9.489711871E0
2.914904698E0;5.506663769E-2;1.987187415E-1;9.478943825E0;9.481186503E0
2.916902718E0;1.149216816E-1;2.202665508E-1;9.483732224E0;9.486985888E0
2.918900739E0;1.508347094E-1;2.298433632E-1;9.490914345E0;9.494895164E0
2.920898760E0;1.795651317E-1;2.442085743E-1;9.488520622E0;9.493361105E0
2.922896781E0;2.106897533E-1;2.585737705E-1;9.519645691E0;9.525487108E0
2.924894802E0;2.250549644E-1;2.923918962E-1;9.517251015E0;9.524400749E0
2.926892823E0;2.298433632E-1;3.474585116E-1;9.498097420E0;9.507229354E0
2.928890843E0;2.226607651E-1;4.121019542E-1;9.457395554E0;9.468988145E0
2.930888864E0;1.987187415E-1;4.480150044E-1;9.447818756E0;9.460522492E0
2.932886885E0;1.891419291E-1;4.528034031E-1;9.536404610E0;9.549021859E0
2.934884906E0;2.011129409E-1;4.384381771E-1;9.522039413E0;9.534249265E0
2.936882927E0;1.867477298E-1;4.168903828E-1;9.483732224E0;9.494727442E0
2.938880948E0;1.292868853E-1;3.953425586E-1;9.498097420E0;9.507200715E0
2.940878968E0;9.816227108E-2;3.833715618E-1;9.457395554E0;9.465671674E0
2.942876989E0;1.149216816E-1;3.881599605E-1;9.397541046E0;9.406256049E0
2.944875010E0;1.364694983E-1;3.714005351E-1;9.452607155E0;9.460884964E0
2.946873031E0;1.340752989E-1;3.211222887E-1;9.514857292E0;9.521218672E0
2.948871052E0;1.053448766E-1;2.705447972E-1;9.498097420E0;9.502533695E0
2.950869073E0;7.661445439E-2;2.585737705E-1;9.435848236E0;9.439701378E0
2.952867093E0;7.182604820E-2;2.466027737E-1;9.419088364E0;9.422589745E0
2.954864906E0;8.619125932E-2;2.106897533E-1;9.431059837E0;9.433806695E0
2.956862510E0;9.576806426E-2;1.723825186E-1;9.411906242E0;9.413971870E0
2.958860114E0;9.576806426E-2;1.412578970E-1;9.387964249E0;9.389515326E0
2.960857718E0;8.140286058E-2;1.292868853E-1;9.378387451E0;9.379631800E0
2.962855323E0;6.464344263E-2;1.388636976E-1;9.407117844E0;9.408364790E0
2.964852927E0;5.027823523E-2;1.388636976E-1;9.464578629E0;9.465730803E0
2.966850531E0;3.112462163E-2;1.723825186E-1;9.469367027E0;9.470987085E0
2.968848135E0;-2.394201607E-2;2.537853718E-1;9.416694641E0;9.420144277E0
2.970845739E0;-1.173158810E-1;2.995744944E-1;9.404723167E0;9.410224532E0
2.972843343E0;-1.963245422E-1;3.067570925E-1;9.423876762E0;9.430911752E0
2.974840948E0;-2.418143749E-1;3.139396906E-1;9.488520622E0;9.496791875E0
2.976838552E0;-2.657563984E-1;3.354875147E-1;9.495702744E0;9.505343178E0
2.978836156E0;-2.828150690E-1;3.067570925E-1;9.522039413E0;9.531176153E0
2.980833760E0;-2.852092683E-1;2.442085743E-1;9.555558205E0;9.562932330E0
2.982831364E0;-2.947860956E-1;2.011129409E-1;9.486125946E0;9.492835758E0
2.984828968E0;-2.852092683E-1;1.723825186E-1;9.462183952E0;9.468050761E0
2.986826573E0;-2.657563984E-1;1.532289088E-1;9.483732224E0;9.488692347E0
2.988824177E0;-2.513911724E-1;1.149216816E-1;9.495702744E0;9.499725002E0
2.990821781E0;-2.250549644E-1;9.097966552E-2;9.481337547E0;9.484444566E0
2.992819385E0;-1.819593310E-1;9.097966552E-2;9.455001831E0;9.457190181E0
2.994816989E0;-1.125274822E-1;9.097966552E-2;9.457395554E0;9.458502545E0
2.996814593E0;-4.070143029E-2;1.005564705E-1;9.409511566E0;9.410136881E0
2.998812198E0;9.576806799E-3;1.173158810E-1;9.387964249E0;9.388702118E0
3.000809802E0;5.267243832E-2;1.053448766E-1;9.435848236E0;9.436583273E0
3.002807406E0;8.379705995E-2;6.703764945E-2;9.459790230E0;9.460398891E0
3.004805010E0;1.029506698E-1;4.788403213E-2;9.476549149E0;9.477229315E0
3.006802614E0;1.244984865E-1;5.985504389E-2;9.490914345E0;9.491919595E0
3.008800218E0;1.460463107E-1;6.464344263E-2;9.471760750E0;9.473107199E0
3.010797875E0;1.675941199E-1;6.943184882E-2;9.466972351E0;9.468710264E0
3.012795583E0;1.628057212E-1;9.576806426E-2;9.443030357E0;9.444919246E0
3.014793343E0;1.244984865E-1;1.388636976E-1;9.419088364E0;9.420934593E0
3.016791156E0;8.619125932E-2;1.987187415E-1;9.481337547E0;9.483811457E0
3.018789020E0;7.900865376E-2;2.154781520E-1;9.536404610E0;9.539165901E0
3.020786937E0;8.858546615E-2;1.987187415E-1;9.541193008E0;9.543673326E0
3.022784906E0;8.858546615E-2;1.963245422E-1;9.541193008E0;9.543623774E0
3.024782927E0;5.985504389E-2;2.154781520E-1;9.457395554E0;9.460039330E0
3.026780948E0;1.197100803E-2;1.987187415E-1;9.423876762E0;9.425979295E0
3.028778968E0;0.000000000E0;1.077390760E-1;9.529222488E0;9.529831527E0
3.030776989E0;3.351882473E-2;6.703764945E-2;9.555558205E0;9.555852142E0
3.032775010E0;4.309562966E-2;1.197100878E-1;9.517251015E0;9.518101419E0
3.034773031E0;1.436521020E-2;1.867477298E-1;9.495702744E0;9.497549772E0
3.036771052E0;-1.436521020E-2;2.250549644E-1;9.538799286E0;9.541464663E0
3.038769073E0;-3.351882473E-2;2.059013397E-1;9.560346603E0;9.562622342E0
3.040767093E0;-6.943184882E-2;1.484405100E-1;9.483732224E0;9.485147983E0
3.042765114E0;-1.292868853E-1;1.029506698E-1;9.447818756E0;9.449264161E0
3.044763135E0;-1.891419291E-1;6.464344263E-2;9.471760750E0;9.473869597E0
3.046761156E0;-2.418143749E-1;3.591302410E-2;9.476549149E0;9.479701878E0
3.048759177E0;-2.971802950E-1;2.394201607E-2;9.459790230E0;9.464487336E0
3.050757198E0;-3.354875147E-1;2.394201607E-2;9.416694641E0;9.422699351E0
3.052755218E0;-3.498527110E-1;3.351882473E-2;9.399934769E0;9.406502755E0
3.054753239E0;-3.618237376E-1;5.506663769E-2;9.433453560E0;9.440550557E0
3.056751260E0;-3.833715618E-1;6.464344263E-2;9.512462616E0;9.520404274E0
3.058749281E0;-4.097077549E-1;6.224924326E-2;9.505280495E0;9.514309891E0
3.060747302E0;-4.144961834E-1;5.746084079E-2;9.457395554E0;9.466648799E0
3.062745323E0;-3.953425586E-1;4.070143029E-2;9.450213432E0;9.458566819E0
3.064743343E0;-3.953425586E-1;3.591302410E-2;9.419088364E0;9.427449872E0
3.066741364E0;-4.001309574E-1;5.027823523E-2;9.445425034E0;9.454030186E0
3.068739385E0;-4.073135555E-1;6.703764945E-2;9.455001831E0;9.464008559E0
3.070737406E0;-4.001309574E-1;7.900865376E-2;9.507674217E0;9.516418243E0
3.072735427E0;-3.714005351E-1;8.140286058E-2;9.500492096E0;9.508097331E0
3.074733448E0;-3.378817141E-1;7.422025502E-2;9.471760750E0;9.478075986E0
3.076731468E0;-3.187280893E-1;8.140286058E-2;9.469367027E0;9.475079204E0
3.078729489E0;-3.043628931E-1;5.746084079E-2;9.438241959E0;9.443323027E0
3.080727510E0;-2.801215947E-1;2.394201700E-3;9.414299965E0;9.418466843E0
3.082725531E0;-2.633621991E-1;-3.112462163E-2;9.416694641E0;9.420428141E0
3.084723552E0;-2.633621991E-1;-1.197100803E-2;9.447818756E0;9.451496294E0
3.086721573E0;-2.609679997E-1;9.576806799E-3;9.490914345E0;9.494506365E0
3.088719593E0;-2.657563984E-1;1.915361360E-2;9.486125946E0;9.489867164E0
3.090717614E0;-2.852092683E-1;2.633621916E-2;9.459790230E0;9.464125375E0
3.092715635E0;-2.899976671E-1;1.675941236E-2;9.450213432E0;9.454676803E0
3.094713656E0;-2.899976671E-1;-1.197100803E-2;9.469367027E0;9.473814113E0
3.096711677E0;-2.923918962E-1;-6.703764945E-2;9.459790230E0;9.464545328E0
3.098709698E0;-3.019686937E-1;-1.125274822E-1;9.438241959E0;9.443741779E0
3.100707718E0;-3.091512918E-1;-1.149216816E-1;9.462183952E0;9.467930432E0
3.102705635E0;-3.115454912E-1;-1.101332754E-1;9.464578629E0;9.470345218E0
3.104703448E0;-3.115454912E-1;-1.077390760E-1;9.416694641E0;9.422462856E0
3.106701208E0;-3.043628931E-1;-9.097966552E-2;9.431059837E0;9.436408412E0
3.108698916E0;-2.729389966E-1;-9.337386489E-2;9.466972351E0;9.471366315E0
3.110696625E0;-2.250549644E-1;-1.125274822E-1;9.452607155E0;9.455955488E0
3.112694333E0;-1.939303428E-1;-1.029506698E-1;9.476549149E0;9.479092340E0
3.114692041E0;-1.580173075E-1;-8.619125932E-2;9.486125946E0;9.487833465E0
3.116689750E0;-1.101332754E-1;-6.943184882E-2;9.457395554E0;9.458291642E0
3.118687458E0;-8.858546615E-2;-5.267243832E-2;9.500492096E0;9.501051091E0
3.120685166E0;-8.619125932E-2;-2.394201607E-2;9.569923401E0;9.570341480E0
3.122682875E0;-1.077390760E-1;1.197100803E-2;9.555558205E0;9.556173063E0
3.124680583E0;-1.101332754E-1;3.351882473E-2;9.519645691E0;9.520341744E0
3.126678291E0;-1.101332754E-1;5.985504389E-2;9.543587685E0;9.544410818E0
3.128676000E0;-1.101332754E-1;7.182604820E-2;9.541193008E0;9.542098949E0
3.130673708E0;-1.077390760E-1;7.661445439E-2;9.490914345E0;9.491835048E0
3.132671416E0;-1.149216816E-1;9.337386489E-2;9.486125946E0;9.487281546E0
3.134669125E0;-1.340752989E-1;1.149216816E-1;9.483732224E0;9.485376116E0
3.136666833E0;-1.556231081E-1;9.097966552E-2;9.505280495E0;9.506989699E0
3.138664541E0;-1.508347094E-1;3.591302410E-2;9.548376083E0;9.549634898E0
3.140662250E0;-1.460463107E-1;2.154781483E-2;9.519645691E0;9.520790299E0
3.142659958E0;-1.484405100E-1;3.351882473E-2;9.495702744E0;9.496922064E0
3.144657666E0;-1.604115069E-1;6.943184882E-2;9.457395554E0;9.459010693E0
3.146655375E0;-1.867477298E-1;1.005564705E-1;9.486125946E0;9.488496814E0
3.148653083E0;-1.939303428E-1;1.197100878E-1;9.450213432E0;9.452961092E0
3.150650791E0;-1.651999205E-1;1.077390760E-1;9.433453560E0;9.435515078E0
3.152648500E0;-1.340752989E-1;8.619125932E-2;9.488520622E0;9.489859257E0
3.154646208E0;-1.268926859E-1;9.576806426E-2;9.464578629E0;9.465913685E0
3.156643916E0;-1.221042871E-1;9.337386489E-2;9.443030357E0;9.444281363E0
3.158641625E0;-1.077390760E-1;7.661445439E-2;9.428665161E0;9.429591943E0
3.160639333E0;-1.077390760E-1;7.182604820E-2;9.419088364E0;9.419978359E0
3.162637041E0;-1.340752989E-1;4.309562966E-2;9.385569572E0;9.386626104E0
3.164634750E0;-1.388636976E-1;-1.915361360E-2;9.435848236E0;9.436889420E0
3.166632458E0;-1.221042871E-1;-1.149216816E-1;9.438241959E0;9.439731337E0
3.168630166E0;-1.053448766E-1;-1.795651317E-1;9.404723167E0;9.407027109E0
3.170627875E0;-1.173158810E-1;-1.867477298E-1;9.438241959E0;9.440818238E0
3.172625583E0;-1.532289088E-1;-1.819593310E-1;9.457395554E0;9.460386829E0
3.174623291E0;-1.723825186E-1;-1.915361285E-1;9.466972351E0;9.470478727E0
3.176621000E0;-1.771709323E-1;-2.178723514E-1;9.478943825E0;9.483102548E0
3.178618708E0;-1.915361285E-1;-2.418143749E-1;9.517251015E0;9.522249060E0
3.180616416E0;-2.059013397E-1;-2.753331959E-1;9.529222488E0;9.535422642E0
3.182614125E0;-2.130839527E-1;-3.091512918E-1;9.505280495E0;9.512693445E0
3.184611833E0;-2.178723514E-1;-3.283049166E-1;9.399934769E0;9.408189312E0
3.186609541E0;-2.130839527E-1;-3.211222887E-1;9.387964249E0;9.395871276E0
3.188607250E0;-2.106897533E-1;-2.923918962E-1;9.428665161E0;9.435550324E0
3.190604958E0;-2.154781520E-1;-2.633621991E-1;9.457395554E0;9.463515263E0
3.192602666E0;-2.226607651E-1;-2.274491638E-1;9.443030357E0;9.448393158E0
3.194600375E0;-2.633621991E-1;-1.915361285E-1;9.428665161E0;9.434287067E0
3.196598083E0;-3.043628931E-1;-1.628057212E-1;9.447818756E0;9.454121943E0
3.198595791E0;-2.995744944E-1;-1.532289088E-1;9.493309021E0;9.499270506E0
3.200593500E0;-2.609679997E-1;-1.747767180E-1;9.483732224E0;9.488931873E0
3.202591208E0;-2.418143749E-1;-1.699883193E-1;9.435848236E0;9.440476797E0
3.204588916E0;-2.298433632E-1;-1.412578970E-1;9.476549149E0;9.480388469E0
3.206586625E0;-2.154781520E-1;-1.005564705E-1;9.476549149E0;9.479531961E0
3.208584333E0;-2.154781520E-1;-3.351882473E-2;9.495702744E0;9.498206406E0
3.210582041E0;-2.202665508E-1;0.000000000E0;9.510068893E0;9.512619393E0
3.212579750E0;-2.322375625E-1;1.197100803E-2;9.519645691E0;9.522485583E0
3.214577458E0;-2.418143749E-1;3.112462163E-2;9.502885818E0;9.506012929E0
3.216575166E0;-2.202665508E-1;3.830722719E-2;9.462183952E0;9.464824877E0
3.218572875E0;-1.891419291E-1;3.112462163E-2;9.490914345E0;9.492849862E0
3.220570583E0;-1.580173075E-1;0.000000000E0;9.545981407E0;9.547289170E0
3.222568291E0;-1.053448766E-1;-3.591302410E-2;9.529222488E0;9.529872429E0
3.224566000E0;-4.548983276E-2;-7.661445439E-2;9.488520622E0;9.488938966E0
3.226563708E0;-1.675941236E-2;-9.816227108E-2;9.522039413E0;9.522560123E0
3.228561416E0;-2.394201700E-3;-8.619125932E-2;9.510068893E0;9.510459769E0
3.230559177E0;2.394201700E-3;-7.661445439E-2;9.483732224E0;9.484041986E0
3.232556989E0;-1.197100803E-2;-8.619125932E-2;9.498097420E0;9.498496030E0
3.234554854E0;-2.394201607E-2;-9.097966552E-2;9.493309021E0;9.493775155E0
3.236552770E0;-9.576806799E-3;-9.337386489E-2;9.519645691E0;9.520108428E0
3.238550687E0;9.576806799E-3;-1.149216816E-1;9.534010887E0;9.534708297E0
3.240548604E0;9.576806799E-3;-1.268926859E-1;9.462183952E0;9.463039608E0
3.242546520E0;-7.182605099E-3;-1.173158810E-1;9.435848236E0;9.436580235E0
3.244544437E0;-2.633621916E-2;-8.140286058E-2;9.445425034E0;9.445812516E0
3.246542354E0;-2.394201607E-2;-4.548983276E-2;9.423876762E0;9.424016966E0
3.248540270E0;-2.394201607E-2;-2.873042040E-2;9.421483040E0;9.421557267E0
3.250538187E0;-5.267243832E-2;-5.506663769E-2;9.402329445E0;9.402638231E0
3.252536104E0;-6.224924326E-2;-9.337386489E-2;9.378387451E0;9.379058846E0
3.254534020E0;-5.985504389E-2;-1.125274822E-1;9.399934769E0;9.400798834E0
3.256531937E0;-5.985504389E-2;-1.244984865E-1;9.431059837E0;9.432071467E0
3.258529854E0;-7.661445439E-2;-1.173158810E-1;9.435848236E0;9.436888509E0
3.260527770E0;-1.053448766E-1;-1.101332754E-1;9.452607155E0;9.453835672E0
3.262525687E0;-1.556231081E-1;-1.149216816E-1;9.493309021E0;9.495279970E0
3.264523604E0;-1.963245422E-1;-1.101332754E-1;9.481337547E0;9.484009403E0
3.266521520E0;-2.322375625E-1;-8.140286058E-2;9.457395554E0;9.460596777E0
3.268519437E0;-2.705447972E-1;-6.224924326E-2;9.469367027E0;9.473435562E0
3.270517354E0;-3.067570925E-1;-6.464344263E-2;9.514857292E0;9.520020377E0
3.272515270E0;-3.618237376E-1;-6.943184882E-2;9.538799286E0;9.545911639E0
3.274513187E0;-4.384381771E-1;-6.703764945E-2;9.522039413E0;9.532363646E0
3.276511104E0;-4.695627987E-1;-9.097966552E-2;9.495702744E0;9.507740905E0
3.278509020E0;-4.863222241E-1;-1.244984865E-1;9.526827812E0;9.540044934E0
3.280506937E0;-5.198410153E-1;-1.053448766E-1;9.524434090E0;9.539191630E0
3.282504854E0;-5.509656668E-1;-7.182604820E-2;9.452607155E0;9.468923073E0
3.284502770E0;-5.725134611E-1;-7.422025502E-2;9.435848236E0;9.453492066E0
3.286500687E0;-5.820902586E-1;-8.140286058E-2;9.500492096E0;9.518655659E0
