"Time (s)";"Acceleration x (m/s^2)";"Acceleration y (m/s^2)";"Acceleration z (m/s^2)";"Absolute acceleration (m/s^2)"
-9.392083339E-4;9.505233765E-2;3.772155762E-2;9.781708832E0;9.782243379E0
9.039791667E-3;1.103205872E-1;4.326004028E-2;9.790091400E0;9.790808531E0
1.901879167E-2;9.804611206E-2;5.388793945E-2;9.802365875E0;9.803004320E0
2.899879167E-2;9.340576172E-2;5.209167480E-2;9.800569611E0;9.801153140E0
3.897779167E-2;9.250762939E-2;4.924758911E-2;9.775122528E0;9.775684294E0
4.895679167E-2;9.175918579E-2;4.670288086E-2;9.775122528E0;9.775664752E0
5.893579167E-2;9.789642334E-2;4.924758911E-2;9.779912567E0;9.780526512E0
6.891479167E-2;1.008901978E-1;5.239105225E-2;9.783056030E0;9.783716520E0
7.889479167E-2;9.595046997E-2;4.924758911E-2;9.781409454E0;9.782004024E0
8.887379167E-2;9.175918579E-2;4.999603271E-2;9.794132996E0;9.794690423E0
9.885279167E-2;1.061293030E-1;4.041595459E-2;9.789792023E0;9.790450691E0
1.088317917E-1;9.056167603E-2;5.089416504E-2;9.788295135E0;9.788846372E0
1.188107917E-1;1.011895752E-1;5.044509888E-2;9.792037354E0;9.792690109E0
1.287907917E-1;9.939331055E-2;5.134323120E-2;9.788295135E0;9.788934407E0
1.387697917E-1;9.280700684E-2;5.269042969E-2;9.790989532E0;9.791571143E0
1.487487917E-1;1.013392639E-1;5.104385376E-2;9.787397003E0;9.788054721E0
1.587277917E-1;1.017883301E-1;4.969665527E-2;9.792636108E0;9.793291202E0
1.687077917E-1;9.699829102E-2;5.703140259E-2;9.789193268E0;9.789839942E0
1.786867917E-1;9.849517822E-2;4.834945679E-2;9.791139221E0;9.791753991E0
1.886657917E-1;9.505233765E-2;5.224136353E-2;9.787247314E0;9.787848288E0
1.986447917E-1;9.250762939E-2;4.775070190E-2;9.787247314E0;9.787800968E0
2.086237917E-1;1.017883301E-1;4.400848389E-2;9.784852295E0;9.785480675E0
2.186037917E-1;9.430389404E-2;4.490661621E-2;9.785750427E0;9.786307846E0
2.285827917E-1;8.861572266E-2;4.625381470E-2;9.785600739E0;9.786111280E0
2.385617917E-1;9.145980835E-2;5.298980713E-2;9.783205719E0;9.783776723E0
2.485407917E-1;9.834548950E-2;5.403762817E-2;9.784552917E0;9.785196354E0
2.585197917E-1;9.520202637E-2;6.331832886E-2;9.789193268E0;9.789860953E0
2.684997917E-1;9.116043091E-2;4.730163574E-2;9.794731750E0;9.795270172E0
2.784787917E-1;9.205856323E-2;3.427871704E-2;9.792935486E0;9.793428166E0
2.884577917E-1;9.819580078E-2;5.538482666E-2;9.795180817E0;9.795829578E0
2.984367917E-1;9.789642334E-2;4.805007935E-2;9.784253540E0;9.784861259E0
3.084157917E-1;1.023870850E-1;5.044509888E-2;9.789043579E0;9.789708985E0
3.183957917E-1;8.876541138E-2;6.152206421E-2;9.785900116E0;9.786496071E0
3.283747917E-1;8.906478882E-2;5.658233643E-2;9.763297119E0;9.763867304E0
3.383537917E-1;9.999206543E-2;5.688171387E-2;9.786349182E0;9.787025302E0
3.483327917E-1;9.669891357E-2;4.610412598E-2;9.783056030E0;9.783642551E0
3.583117917E-1;9.879455566E-2;4.700225830E-2;9.793384552E0;9.793995638E0
3.682917917E-1;1.026864624E-1;4.909790039E-2;9.791737976E0;9.792399487E0
3.782707917E-1;9.864486694E-2;4.580474854E-2;9.777816925E0;9.778421790E0
3.882497917E-1;9.729766846E-2;5.777984619E-2;9.784403229E0;9.785057582E0
3.982287917E-1;9.834548950E-2;4.056564331E-2;9.799970856E0;9.800548259E0
4.082077917E-1;8.786727905E-2;5.164260864E-2;9.782756653E0;9.783287553E0
4.181877917E-1;1.035845947E-1;5.074447632E-2;9.793534241E0;9.794213480E0
4.281667917E-1;9.729766846E-2;4.745132446E-2;9.789941711E0;9.790540188E0
4.381457917E-1;9.310638428E-2;4.909790039E-2;9.785451050E0;9.786017150E0
4.481247917E-1;1.025367737E-1;4.131408691E-2;9.779014435E0;9.779639255E0
4.581047917E-1;9.984237671E-2;4.490661621E-2;9.783056030E0;9.783668555E0
4.680837917E-1;9.430389404E-2;5.568420410E-2;9.764644318E0;9.765258450E0
4.780627917E-1;9.550140381E-2;5.583389282E-2;9.764344940E0;9.764971585E0
4.880417917E-1;1.284329224E-1;3.652404785E-2;9.871971130E0;9.872874101E0
4.980207917E-1;9.804611206E-2;4.819976807E-2;9.743238831E0;9.743851352E0
5.080007917E-1;1.002914429E-1;3.966751099E-2;9.796378326E0;9.796971991E0
5.179797917E-1;1.119671631E-1;4.670288086E-2;9.785451050E0;9.786203046E0
5.279587917E-1;1.112187195E-1;4.161346436E-2;9.786498871E0;9.787219290E0
5.379377917E-1;1.038839722E-1;4.251159668E-2;9.784253540E0;9.784897365E0
5.479167917E-1;1.055305481E-1;4.969665527E-2;9.783205719E0;9.783901093E0
5.578967917E-1;1.058299255E-1;4.505630493E-2;9.795180817E0;9.795856128E0
5.678757917E-1;1.040336609E-1;4.161346436E-2;9.796977081E0;9.797617803E0
5.778547917E-1;1.025367737E-1;5.224136353E-2;9.778116302E0;9.778793452E0
5.878337917E-1;9.624984741E-2;4.939727783E-2;9.779912567E0;9.780510925E0
5.978127917E-1;1.037342834E-1;5.104385376E-2;9.784702606E0;9.785385601E0
6.077922917E-1;1.056802368E-1;5.613327026E-2;9.781858521E0;9.782590422E0
6.177712917E-1;1.028361511E-1;4.999603271E-2;9.790690155E0;9.791357852E0
6.277502917E-1;1.022373962E-1;5.014572144E-2;9.788145447E0;9.788807811E0
6.377292917E-1;1.014889526E-1;4.281097412E-2;9.791887665E0;9.792507178E0
6.477082917E-1;1.073268127E-1;5.328918457E-2;9.780810699E0;9.781544700E0
6.576882917E-1;1.016386414E-1;5.298980713E-2;9.783804474E0;9.784475884E0
6.676672917E-1;1.052311707E-1;5.209167480E-2;9.783954163E0;9.784658716E0
6.776462917E-1;1.020877075E-1;4.924758911E-2;9.787696381E0;9.788352653E0
6.876252917E-1;1.062789917E-1;4.131408691E-2;9.791438599E0;9.792102527E0
6.976052917E-1;1.020877075E-1;4.805007935E-2;9.787546692E0;9.788197023E0
7.075842917E-1;1.074765015E-1;4.834945679E-2;9.773625641E0;9.774336143E0
7.175632917E-1;1.077758789E-1;5.942642212E-2;9.786199493E0;9.786973366E0
7.275422917E-1;9.834548950E-2;5.523513794E-2;9.786199493E0;9.786849507E0
7.375212917E-1;9.939331055E-2;5.269042969E-2;9.787097626E0;9.787744135E0
7.475012917E-1;9.834548950E-2;4.221221924E-2;9.785451050E0;9.786036274E0
7.574802917E-1;1.049317932E-1;4.954696655E-2;9.785750427E0;9.786438423E0
7.674592917E-1;1.004411316E-1;4.819976807E-2;9.791737976E0;9.792371737E0
7.774382917E-1;1.047821045E-1;5.358856201E-2;9.781858521E0;9.782566490E0
7.874172917E-1;1.122665405E-1;4.266128540E-2;9.789642334E0;9.790378991E0
7.973972917E-1;1.023870850E-1;4.819976807E-2;9.785301361E0;9.785955705E0
8.073762917E-1;9.505233765E-2;4.520599365E-2;9.793384552E0;9.793950149E0
8.173552917E-1;1.020877075E-1;4.730163574E-2;9.780960388E0;9.781607509E0
8.273342917E-1;1.026864624E-1;4.715194702E-2;9.779014435E0;9.779667230E0
8.373132917E-1;1.031355286E-1;5.284011841E-2;9.780361633E0;9.781048139E0
8.472932917E-1;9.684860229E-2;4.640350342E-2;9.788744202E0;9.789333276E0
8.572722917E-1;1.044827271E-1;4.700225830E-2;9.792187042E0;9.792857240E0
8.672512917E-1;9.954299927E-2;4.954696655E-2;9.786199493E0;9.786831164E0
8.772302917E-1;1.002914429E-1;5.433700562E-2;9.790241089E0;9.790905549E0
8.872102917E-1;1.068777466E-1;4.475692749E-2;9.786648560E0;9.787334472E0
8.971892917E-1;1.028361511E-1;4.221221924E-2;9.789342957E0;9.789974089E0
9.071682917E-1;1.098715210E-1;5.538482666E-2;9.782906342E0;9.783680070E0
9.171472917E-1;1.007405090E-1;5.134323120E-2;9.787097626E0;9.787750748E0
9.271262917E-1;9.535171509E-2;5.209167480E-2;9.776769104E0;9.777372838E0
9.371062917E-1;1.010398865E-1;5.807922363E-2;9.790690155E0;9.791383762E0
9.470852917E-1;9.864486694E-2;4.355941772E-2;9.781559143E0;9.782153521E0
9.570642917E-1;1.067280579E-1;4.385879517E-2;9.786349182E0;9.787029416E0
9.670432917E-1;1.050814819E-1;5.523513794E-2;9.786648560E0;9.787368547E0
9.770222917E-1;1.014889526E-1;4.864883423E-2;9.796228638E0;9.796875126E0
9.870022917E-1;1.074765015E-1;5.448669434E-2;9.771979065E0;9.772721977E0
9.969812917E-1;1.041833496E-1;4.490661621E-2;9.780361633E0;9.781019602E0
1.006960292E0;9.595046997E-2;4.834945679E-2;9.791588287E0;9.792177763E0
1.016939292E0;1.073268127E-1;5.373825073E-2;9.784103851E0;9.784840061E0
1.026918292E0;1.037342834E-1;4.326004028E-2;9.783954163E0;9.784599700E0
1.036898292E0;9.819580078E-2;4.520599365E-2;9.776769104E0;9.777366727E0
1.046877292E0;1.055305481E-1;5.433700562E-2;9.789342957E0;9.790062550E0
1.056856292E0;9.759704590E-2;5.044509888E-2;9.782008209E0;9.782625133E0
1.066835292E0;1.061293030E-1;4.954696655E-2;9.780810699E0;9.781511962E0
1.076815292E0;1.028361511E-1;4.595443726E-2;9.785301361E0;9.785949612E0
1.086794292E0;9.894424438E-2;4.954696655E-2;9.799821167E0;9.800445897E0
1.096773292E0;9.879455566E-2;5.029541016E-2;9.791887665E0;9.792515205E0
1.106752292E0;1.038839722E-1;4.730163574E-2;9.780960388E0;9.781626421E0
1.116731292E0;1.140628052E-1;4.355941772E-2;9.778565369E0;9.779327605E0
1.126711292E0;1.004411316E-1;4.640350342E-2;9.783205719E0;9.783831348E0
1.136690292E0;1.035845947E-1;5.014572144E-2;9.782606964E0;9.783283875E0
1.146669292E0;1.043330383E-1;4.445755005E-2;9.786648560E0;9.787305650E0
1.156648292E0;9.789642334E-2;4.655319214E-2;9.785750427E0;9.786350818E0
1.166627292E0;1.094224548E-1;4.790039063E-2;9.786199493E0;9.786928438E0
1.176607292E0;1.088237000E-1;4.819976807E-2;9.782457275E0;9.783181290E0
1.186586292E0;9.954299927E-2;5.014572144E-2;9.777966614E0;9.778601868E0
1.196565292E0;1.059796143E-1;4.999603271E-2;9.782008209E0;9.782710048E0
1.206544292E0;1.046324158E-1;3.757186890E-2;9.778265991E0;9.778897964E0
1.216523292E0;9.909393311E-2;5.658233643E-2;9.794731750E0;9.795396431E0
1.226503292E0;1.044827271E-1;5.343887329E-2;9.780960388E0;9.781664402E0
1.236482292E0;9.804611206E-2;4.745132446E-2;9.790540466E0;9.791146373E0
1.246461292E0;1.019380188E-1;4.565505981E-2;9.789193268E0;9.789830467E0
1.256440292E0;9.595046997E-2;4.864883423E-2;9.792785797E0;9.793376684E0
1.266419292E0;9.699829102E-2;5.508544922E-2;9.787846069E0;9.788481688E0
1.276399292E0;9.909393311E-2;4.805007935E-2;9.778415680E0;9.779035823E0
1.286378292E0;1.041833496E-1;5.388793945E-2;9.787846069E0;9.788548859E0
1.296357292E0;9.939331055E-2;4.625381470E-2;9.780960388E0;9.781574749E0
1.306336292E0;1.068777466E-1;4.700225830E-2;9.787846069E0;9.788542422E0
1.316316292E0;1.055305481E-1;5.029541016E-2;9.782457275E0;9.783155762E0
1.326295292E0;9.879455566E-2;4.864883423E-2;9.779463501E0;9.780083509E0
1.336274292E0;-2.095642090E-1;8.232879639E-3;9.785451050E0;9.787698258E0
1.346253292E0;-2.406246185E0;-1.110690308E-1;9.809101868E0;1.010053645E1
1.356232292E0;-2.432591400E0;2.697390747E-1;9.813891907E0;1.011448142E1
1.366212292E0;-7.544311523E-2;5.553451538E-1;9.771380310E0;9.787439556E0
1.376191292E0;2.398312683E0;5.204676819E-1;9.727820892E0;1.003261131E1
1.386170292E0;2.110161896E0;2.633024597E-1;9.760752411E0;9.989714663E0
1.396149292E0;3.900888062E-1;5.113366699E-1;9.817185059E0;9.838229360E0
1.406128292E0;-2.589614868E-1;1.195713501E0;9.795031128E0;9.871141100E0
1.416108292E0;-3.107537842E-1;1.030606842E0;9.761949921E0;9.821119317E0
1.426087292E0;-2.402503967E-1;4.361929321E-1;9.782756653E0;9.795423026E0
1.436066292E0;-2.477348328E-1;4.529580688E-1;9.769434357E0;9.783066554E0
1.446045292E0;-2.772235107E-1;6.982978821E-1;9.792785797E0;9.821564360E0
1.456024292E0;-1.956431580E-1;6.225553894E-1;9.796378326E0;9.818089416E0
1.466004292E0;-1.972897339E-1;4.258644104E-1;9.756411438E0;9.767694092E0
1.475983292E0;-2.109114075E-1;2.591111755E-1;9.779014435E0;9.784720003E0
1.485962292E0;4.445755005E-2;2.680924988E-1;9.784403229E0;9.788176368E0
1.495941292E0;3.412902832E-1;1.055305481E-1;9.782307587E0;9.788828197E0
1.505921292E0;3.165916443E-1;1.142124939E-1;9.806108093E0;9.811882118E0
1.515900292E0;2.427951050E-1;4.775070190E-1;9.755662994E0;9.770359404E0
1.525879292E0;-1.886077881E-1;5.050497437E-1;9.770482178E0;9.785344661E0
1.535858292E0;-6.505471802E-1;6.177653503E-1;9.840835876E0;9.881644418E0
1.545837292E0;-8.894503784E-1;1.321302338E0;9.767638092E0;9.896651744E0
1.555817292E0;-1.197210388E0;1.476080475E0;9.807604980E0;9.990057144E0
1.565796292E0;-9.045689392E-1;7.755372620E-1;9.753267975E0;9.825779318E0
1.575775292E0;-1.151106262E-1;1.466949463E-2;9.783954163E0;9.784642288E0
1.585754292E0;6.137237549E-3;2.097138977E-1;9.790989532E0;9.793237136E0
1.595733292E0;1.959425354E-1;5.002597046E-1;9.742640076E0;9.757442744E0
1.605713292E0;5.177732849E-1;3.582051086E-1;9.819879456E0;9.840042307E0
1.615692333E0;4.095483398E-1;1.689985657E-1;9.779313812E0;9.789344666E0
1.625671333E0;-9.175918579E-2;3.100053406E-1;9.760303345E0;9.765656375E0
1.635650333E0;-9.909393311E-2;4.453239441E-1;9.812245331E0;9.822845385E0
1.645629333E0;-1.374142456E-1;3.634442139E-1;9.808802490E0;9.816495335E0
1.655609333E0;-8.143066406E-2;4.010160828E-1;9.767039337E0;9.775607514E0
1.665588333E0;-1.330732727E-1;3.649411011E-1;9.805359650E0;9.813050920E0
1.675567333E0;-4.188290405E-1;3.707789612E-1;9.772577820E0;9.788573545E0
1.685546333E0;-3.029699707E-1;3.052153015E-1;9.797126770E0;9.806561076E0
1.695525333E0;-4.730163574E-2;4.105961609E-1;9.745334473E0;9.754095070E0
1.705505333E0;2.859054565E-2;5.921685791E-1;9.819580078E0;9.837460747E0
1.715484333E0;-1.805245972E-1;7.054829407E-1;9.800270233E0;9.827288128E0
1.725463333E0;-5.337899780E-1;7.212002563E-1;9.778864746E0;9.819941816E0
1.735442333E0;-1.369651794E-1;5.709127808E-1;9.751322021E0;9.768980603E0
1.745422333E0;2.903961182E-2;5.276527405E-1;9.808203735E0;9.822429497E0
1.755401333E0;-6.616241455E-2;5.978567505E-1;9.812095642E0;9.830515299E0
1.765380333E0;-1.167572021E-1;3.812571716E-1;9.722881165E0;9.731053767E0
1.775359333E0;2.095642090E-1;2.245330811E-3;9.810898132E0;9.813136316E0
1.785338333E0;4.818479919E-1;-6.421646118E-2;9.745933228E0;9.758048766E0
1.795318333E0;7.458988953E-1;-1.386117554E-1;9.793833618E0;9.823174401E0
1.805297333E0;5.403762817E-1;-2.844085693E-2;9.799671478E0;9.814600170E0
1.815276333E0;7.667056274E-1;1.047821045E-2;9.797426147E0;9.827385534E0
1.825255333E0;9.181906128E-1;2.165995789E-1;9.767039337E0;9.812494423E0
1.835234333E0;5.843847656E-1;4.396357727E-1;9.776769104E0;9.804080746E0
1.845214333E0;4.204756165E-1;5.640270996E-1;9.782157898E0;9.807422671E0
1.855193333E0;4.203259277E-1;5.114863586E-1;9.761650543E0;9.784074484E0
1.865172333E0;5.325924683E-1;2.402503967E-1;9.807305603E0;9.824694305E0
1.875151333E0;3.670367432E-1;4.311035156E-1;9.738448792E0;9.754893699E0
1.885130333E0;1.869612122E-1;3.014730835E-1;9.757010193E0;9.763456786E0
1.895110333E0;1.261875916E-1;2.433938599E-1;9.778265991E0;9.782108652E0
1.905089333E0;4.805007935E-2;1.832189941E-1;9.804461517E0;9.806291024E0
1.915068333E0;5.074447632E-2;1.210981750E-1;9.782307587E0;9.783188718E0
1.925047333E0;1.056802368E-1;2.698887634E-1;9.808054047E0;9.812335728E0
1.935027333E0;-6.047424316E-2;5.953120422E-1;9.775571594E0;9.793868161E0
1.945006333E0;-2.347119141E-1;5.402265930E-1;9.770482178E0;9.788220290E0
1.954985333E0;-1.237925720E-1;4.632865906E-1;9.829160156E0;9.840851002E0
1.964964333E0;-2.634521484E-1;4.366419983E-1;9.757159882E0;9.770477584E0
1.974943333E0;-1.724414062E-1;2.580633545E-1;9.737999725E0;9.742944698E0
1.984923333E0;1.721420288E-2;4.005670166E-1;9.862391052E0;9.870537348E0
1.994902333E0;1.595681763E-1;5.462141418E-1;9.772577820E0;9.789131174E0
2.004881333E0;5.066963196E-1;4.468208313E-1;9.812993774E0;9.836220658E0
2.014860333E0;4.930746460E-1;5.960604858E-1;9.739496613E0;9.770169137E0
2.024839333E0;4.087998962E-1;5.544470215E-1;9.772278442E0;9.796527691E0
2.034819333E0;5.914201355E-1;5.366340637E-1;9.852960663E0;9.885271252E0
2.044798333E0;7.755372620E-1;5.559439087E-1;9.701475677E0;9.748290209E0
2.054777333E0;8.228388977E-1;4.439767456E-1;9.751471710E0;9.796192103E0
2.064756333E0;6.319857788E-1;1.910028076E-1;9.781708832E0;9.803964288E0
2.074735333E0;6.601272583E-1;-1.972897339E-1;9.806407471E0;9.830580792E0
2.084715333E0;3.701802063E-1;-2.302212524E-1;9.774823151E0;9.784538969E0
2.094694333E0;-1.393601990E-1;-9.610015869E-2;9.808503113E0;9.809963803E0
2.104673333E0;-1.377136230E-1;-4.939727783E-3;9.764794006E0;9.765766300E0
2.114652333E0;-1.300794983E-1;-1.368154907E-1;9.822873230E0;9.824687153E0
2.124632333E0;-2.859054565E-1;3.203338623E-2;9.803114319E0;9.807334929E0
2.134611333E0;1.556762695E-2;4.604425049E-1;9.786798248E0;9.797635919E0
2.144590333E0;1.642085266E-1;3.577560425E-1;9.785451050E0;9.793365411E0
2.154569333E0;1.502874756E-1;3.388952637E-1;9.783804474E0;9.790825619E0
2.164548333E0;2.203417969E-1;1.704954529E-1;9.780211945E0;9.784179316E0
2.174528333E0;1.767823792E-1;5.987548828E-3;9.785451050E0;9.787049612E0
2.184507333E0;-4.041595459E-3;1.182540894E-1;9.802814941E0;9.803529015E0
2.194486333E0;4.475692749E-2;1.793270874E-1;9.742490387E0;9.744243446E0
2.204465333E0;1.332229614E-1;3.038681030E-2;9.816286926E0;9.817237938E0
2.214444333E0;4.090992737E-1;8.666976929E-2;9.761351166E0;9.770304522E0
2.224424333E0;5.686674500E-1;2.393522644E-1;9.802066498E0;9.821465257E0
2.234403333E0;4.851411438E-1;4.583468628E-1;9.771679688E0;9.794445757E0
2.244382333E0;3.240760803E-1;3.302133179E-1;9.746531982E0;9.757507460E0
2.254361333E0;1.321751404E-1;2.930905151E-1;9.787995758E0;9.793274901E0
2.264340333E0;-5.613327026E-2;2.028282166E-1;9.813891907E0;9.816148154E0
2.274320333E0;-2.606080627E-1;-9.580078125E-3;9.743388519E0;9.746877868E0
2.284299333E0;-4.629872131E-1;4.924758911E-2;9.853559418E0;9.864553496E0
2.294278333E0;-6.092330933E-1;2.990780640E-1;9.750573578E0;9.774164811E0
2.304257333E0;-5.260061646E-1;1.649569702E-1;9.820029144E0;9.835490109E0
2.314236333E0;-3.882925415E-1;5.044509888E-2;9.779014435E0;9.786850317E0
2.324216333E0;-3.980223083E-1;7.439529419E-2;9.800569611E0;9.808930681E0
2.334195333E0;-4.791535950E-1;1.344204712E-1;9.790241089E0;9.802881087E0
2.344174333E0;-3.393443298E-1;1.814227295E-1;9.764344940E0;9.771924114E0
2.354153333E0;-2.475851440E-1;2.110610962E-2;9.803862762E0;9.807011213E0
2.364133333E0;-1.242416382E-2;-5.059478760E-2;9.789043579E0;9.789182212E0
2.374112333E0;2.341131592E-1;6.331832886E-2;9.770631866E0;9.773641351E0
2.384091333E0;2.335144043E-1;1.616638184E-2;9.797725525E0;9.800521200E0
2.394070333E0;4.134402466E-1;1.098715210E-1;9.766889648E0;9.776253781E0
2.404049333E0;6.743476868E-1;2.929408264E-1;9.798623657E0;9.826168363E0
2.414029333E0;7.517367554E-1;3.088078308E-1;9.783505096E0;9.817201353E0
2.424008333E0;8.672964478E-1;2.857557678E-1;9.780361633E0;9.822898410E0
2.433987333E0;8.437953186E-1;2.151026917E-1;9.768685913E0;9.807419853E0
2.443966333E0;6.462062073E-1;3.631448364E-1;9.786199493E0;9.814232377E0
2.453945333E0;8.704399109E-1;3.809577942E-1;9.789941711E0;9.835941907E0
2.463925333E0;6.680607605E-1;6.780899048E-2;9.796827393E0;9.819813145E0
2.473904333E0;4.552033997E-1;3.435356140E-1;9.793085175E0;9.809676044E0
2.483883333E0;5.010081482E-1;3.579057312E-1;9.768685913E0;9.788070808E0
2.493862333E0;5.733078003E-1;3.579057312E-1;9.780361633E0;9.803685635E0
2.503841333E0;7.491920471E-1;3.646417236E-1;9.811047821E0;9.846365403E0
2.513821333E0;8.062234497E-1;3.864962769E-1;9.756860504E0;9.797739664E0
2.523800333E0;8.041278076E-1;3.538641357E-1;9.790241089E0;9.829580964E0
2.533779333E0;7.376660156E-1;3.453318787E-1;9.730365601E0;9.764395525E0
2.543758333E0;7.116201782E-1;3.604504395E-1;9.786049805E0;9.818507961E0
2.553738333E0;7.093748474E-1;7.319778442E-2;9.826016693E0;9.851861481E0
2.563717333E0;6.189628601E-1;1.600172424E-1;9.738149414E0;9.759112385E0
2.573696333E0;4.191284180E-1;2.104623413E-1;9.775421906E0;9.786666259E0
2.583675333E0;3.550616455E-1;-8.307723999E-2;9.830956421E0;9.837716948E0
2.593654333E0;2.478845215E-1;-9.954299927E-2;9.817634125E0;9.821267502E0
2.603634333E0;1.362167358E-1;-1.076261902E-1;9.777517548E0;9.779058635E0
2.613613417E0;2.540217590E-1;-5.628295898E-2;9.751920776E0;9.755391005E0
2.623592417E0;3.433859253E-1;5.568420410E-2;9.785301361E0;9.791482898E0
2.633571417E0;3.812571716E-1;-1.317260742E-2;9.773026886E0;9.780469573E0
2.643550417E0;5.071453857E-1;2.050735474E-2;9.861792297E0;9.874845027E0
2.653530417E0;4.577481079E-1;7.664062500E-2;9.721533966E0;9.732606525E0
2.663509417E0;3.186872864E-1;7.080276489E-2;9.811796265E0;9.817225706E0
2.673488417E0;2.411485291E-1;-6.990463257E-2;9.799970856E0;9.803186627E0
2.683467417E0;7.080276489E-2;4.745132446E-2;9.805209961E0;9.805580403E0
2.693446417E0;1.026864624E-1;-2.634521484E-2;9.770931244E0;9.771506330E0
2.703426417E0;1.610650635E-1;-3.442840576E-3;9.774823151E0;9.776150645E0
2.713405417E0;-9.385482788E-2;1.282832336E-1;9.760153656E0;9.761447880E0
2.723384417E0;-9.250762939E-2;2.805166626E-1;9.772128754E0;9.776591821E0
2.733363417E0;5.373825073E-2;3.890409851E-1;9.799970856E0;9.807837145E0
2.743342417E0;1.752854919E-1;1.854643250E-1;9.793384552E0;9.796708784E0
2.753322417E0;1.505868530E-1;3.632945251E-1;9.813592529E0;9.821469220E0
2.763301417E0;8.038284302E-2;3.604504395E-1;9.762548676E0;9.769531338E0
2.773280417E0;3.233276367E-2;2.625540161E-1;9.807604980E0;9.811171972E0
2.783259417E0;3.532653809E-2;3.698808289E-1;9.773475952E0;9.780536385E0
2.793239417E0;-5.388793945E-3;2.959346008E-1;9.776469727E0;9.780949169E0
2.803218417E0;9.759704590E-2;1.562750244E-1;9.807604980E0;9.809335478E0
2.813197417E0;1.161584473E-1;1.206491089E-1;9.784852295E0;9.786285476E0
2.823176417E0;1.866618347E-1;-3.143463135E-2;9.803563385E0;9.805390651E0
2.833155417E0;2.273771667E-1;6.032455444E-2;9.727671204E0;9.730515221E0
2.843135417E0;2.029779053E-1;2.254312134E-1;9.815837860E0;9.820524027E0
2.853114417E0;1.396595764E-1;-5.089416504E-2;9.798623657E0;9.799751047E0
2.863093417E0;5.807922363E-2;1.300794983E-1;9.751322021E0;9.752362536E0
2.873072417E0;-3.547622681E-2;3.326083374E-1;9.785750427E0;9.791465585E0
2.883051417E0;-1.501377869E-1;1.273851013E-1;9.789193268E0;9.791173227E0
2.893031417E0;-2.984793091E-1;9.220825195E-2;9.852511597E0;9.857463011E0
2.903010417E0;-1.941462708E-1;2.782713318E-1;9.755513306E0;9.761412171E0
2.912989417E0;-9.639953613E-2;2.128573608E-1;9.802814941E0;9.805599518E0
2.922968417E0;7.095245361E-2;9.160949707E-2;9.745035095E0;9.745723963E0
2.932947417E0;1.425036621E-1;1.833686829E-1;9.818831635E0;9.821577574E0
2.942927417E0;2.201921082E-1;1.606159973E-1;9.811796265E0;9.815580880E0
2.952906417E0;1.719923401E-1;1.261875916E-1;9.798773346E0;9.801095029E0
2.962885417E0;9.355545044E-2;1.148112488E-1;9.782606964E0;9.783727984E0
2.972864417E0;1.886077881E-2;1.672023010E-1;9.779912567E0;9.781359934E0
2.982844417E0;-4.610412598E-2;-2.245330811E-2;9.767189026E0;9.767323646E0
2.992823417E0;-2.942880249E-1;4.370910645E-2;9.807305603E0;9.811817320E0
3.002802417E0;-2.639012146E-1;-1.820214844E-1;9.787696381E0;9.792945221E0
3.012781417E0;-2.939886475E-1;-3.113525391E-1;9.785900116E0;9.795264714E0
3.022760417E0;-2.040257263E-1;-1.332229614E-1;9.777667236E0;9.780703014E0
3.032740417E0;-1.811233521E-2;1.437011719E-2;9.823322296E0;9.823349505E0
3.042719417E0;1.442999268E-1;2.275268555E-1;9.772128754E0;9.775842231E0
3.052698417E0;4.288581848E-1;3.370989990E-1;9.757758636E0;9.772993845E0
3.062677417E0;4.125421143E-1;2.966830444E-1;9.792935486E0;9.806110200E0
3.072656417E0;4.334985352E-1;8.622070312E-2;9.797575836E0;9.807540326E0
3.082636417E0;4.715194702E-1;3.475772095E-1;9.809101868E0;9.826577226E0
3.092615417E0;3.969744873E-1;2.206411743E-1;9.800569611E0;9.811087400E0
3.102594417E0;6.331832886E-2;-1.860630798E-1;9.798923035E0;9.800893904E0
3.112573417E0;6.137237549E-3;4.745132446E-2;9.801018677E0;9.801135465E0
3.122552417E0;2.083666992E-1;-4.340972900E-2;9.737700348E0;9.740026137E0
3.132532417E0;1.285826111E-1;-1.534309387E-1;9.778116302E0;9.780165283E0
3.142511417E0;8.502319336E-2;-1.652563477E-1;9.833650818E0;9.835406805E0
3.152490417E0;-7.753875732E-2;-8.352630615E-2;9.767787781E0;9.768452643E0
3.162469417E0;-1.055305481E-1;2.014810181E-1;9.793384552E0;9.796025331E0
3.172449417E0;3.083587646E-2;2.740800476E-1;9.793234863E0;9.797117934E0
3.182428417E0;-4.924758911E-2;2.824626160E-1;9.766739960E0;9.770947748E0
3.192407417E0;-1.410067749E-1;4.258644104E-1;9.754315796E0;9.764625956E0
3.202386417E0;8.008346558E-2;3.664379883E-1;9.825417938E0;9.832574832E0
3.212365417E0;1.523831177E-1;1.670526123E-1;9.753267975E0;9.755888651E0
3.222345417E0;4.730163574E-2;1.923500061E-1;9.779164124E0;9.781170018E0
3.232324417E0;-2.514770508E-2;1.074765015E-1;9.815538483E0;9.816159092E0
3.242303417E0;-1.169068909E-1;7.424560547E-2;9.828411713E0;9.829387388E0
3.252282417E0;-2.609074402E-1;3.150947571E-1;9.782906342E0;9.791456168E0
3.262261417E0;-3.529660034E-1;4.676275635E-1;9.751322021E0;9.768906884E0
3.272241417E0;-1.493893433E-1;5.842350769E-1;9.747430115E0;9.766065822E0
3.282220417E0;9.580078125E-3;6.192622375E-1;9.767638092E0;9.787253516E0
3.292199417E0;-5.568420410E-2;2.312690735E-1;9.817783813E0;9.820665208E0
3.302178417E0;-2.106120300E-1;2.083666992E-1;9.850415955E0;9.854870298E0
3.312157417E0;-3.308120728E-2;1.859133911E-1;9.758507080E0;9.760333938E0
3.322137417E0;-2.579136658E-1;2.182461548E-1;9.781559143E0;9.787392406E0
3.332116417E0;-4.140390015E-1;1.951940918E-1;9.769584045E0;9.780301705E0
3.342095417E0;-3.905378723E-1;1.960922241E-2;9.852960663E0;9.860716920E0
3.352074417E0;-2.869532776E-1;2.213896179E-1;9.770931244E0;9.777650685E0
3.362054417E0;-2.514770508E-1;4.504133606E-1;9.745484161E0;9.759127750E0
3.372033417E0;-1.770817566E-1;5.028044128E-1;9.768236847E0;9.782771659E0
3.382012417E0;1.314266968E-1;7.319778442E-2;9.765392761E0;9.766551422E0
3.391991417E0;3.323089600E-2;1.984872437E-1;9.773326263E0;9.775398085E0
3.401970417E0;2.760260010E-1;4.306544495E-1;9.842482452E0;9.855765543E0
3.411950417E0;1.023870850E-1;3.276686096E-1;9.796977081E0;9.802989838E0
3.421929417E0;-1.956431580E-1;4.236190796E-2;9.760003967E0;9.762056557E0
3.431908417E0;3.742218018E-3;-1.131646729E-1;9.769883423E0;9.770539511E0
3.441887417E0;-1.110690308E-1;1.896556091E-1;9.791588287E0;9.794054664E0
3.451866417E0;-8.027806091E-1;1.134640503E-1;9.813592529E0;9.847026410E0
3.461846417E0;-2.659968567E-1;1.737886047E-1;9.846973114E0;9.852098067E0
3.471825417E0;3.143463135E-3;5.406756592E-1;9.667496338E0;9.682604272E0
3.481804417E0;-1.437011719E-2;2.415975952E-1;9.847871246E0;9.850844836E0
3.491783417E0;1.194515991E-1;-5.388793945E-2;9.759105835E0;9.759985619E0
3.501762417E0;-1.957928467E-1;2.707868958E-1;9.806108093E0;9.811799851E0
3.511742417E0;-6.095324707E-1;1.401086426E-1;9.809550934E0;9.829468439E0
3.521721417E0;-7.228468323E-1;-1.676513672E-2;9.757459259E0;9.784211762E0
3.531700417E0;-4.649331665E-1;-1.062789917E-1;9.813742218E0;9.825324137E0
3.541679417E0;-3.067121887E-1;-4.113446045E-1;9.785451050E0;9.798894274E0
3.551659417E0;1.492396545E-1;-1.013841705E0;9.846224670E0;9.899408454E0
3.561638417E0;-3.514691162E-1;-5.930667114E-1;9.788594513E0;9.812840629E0
3.571617417E0;-6.686595154E-1;-3.159928894E-1;9.767787781E0;9.795745770E0
3.581596417E0;-9.939331055E-2;-7.911048889E-1;9.815089417E0;9.847421298E0
3.591575417E0;-4.082011414E-1;-1.788780212E-1;9.801018677E0;9.811146346E0
3.601555417E0;-6.896159363E-1;1.609153748E-1;9.760153656E0;9.785809281E0
3.611534417E0;-1.805245972E-1;3.233276367E-2;9.826016693E0;9.827728048E0
3.621513417E0;-3.457809448E-2;1.022373962E-1;9.723030853E0;9.723629832E0
3.631492417E0;-4.095483398E-1;-1.966909790E-1;9.823771362E0;9.834271756E0
3.641471417E0;-6.421646118E-1;-3.942800903E-1;9.854457550E0;9.883226487E0
3.651451417E0;-1.121168518E-1;-5.740562439E-1;9.801018677E0;9.818455982E0
3.661430417E0;3.035687256E-1;-7.232958984E-1;9.833052063E0;9.864290334E0
3.671409417E0;-3.345542908E-1;-1.100212097E-1;9.808503113E0;9.814823715E0
3.681388417E0;-9.746232605E-1;1.253643036E0;9.777367859E0;9.905474931E0
3.691367417E0;-1.076261902E0;8.854087830E-1;9.766590271E0;9.865524513E0
3.701347417E0;5.433700562E-2;-1.057850189E0;9.843530273E0;9.900357962E0
3.711326417E0;1.718426514E-1;-1.354383545E0;9.772727509E0;9.867628268E0
3.721305417E0;6.735992432E-2;-1.193318481E0;9.753118286E0;9.826080738E0
3.731284417E0;6.499484253E-1;-1.138532410E0;9.803563385E0;9.890831312E0
3.741263417E0;1.229243774E0;-1.513352966E0;9.824370117E0;1.001596354E1
3.751243417E0;7.140151978E-1;-1.501078491E0;9.828860779E0;9.968428088E0
3.761222417E0;-8.904981995E-1;-5.644761658E-1;9.752220154E0;9.809047778E0
3.771201417E0;-1.372645569E0;-2.511776733E-1;9.776769104E0;9.875852378E0
3.781180417E0;-1.060095520E0;-3.119512939E-1;9.780661011E0;9.842888089E0
3.791160417E0;-9.425898743E-1;-5.776487732E-1;9.795629883E0;9.857815102E0
3.801139417E0;-9.575587463E-1;-8.419990540E-1;9.773775330E0;9.856600091E0
3.811118417E0;-7.162605286E-1;-7.759863281E-1;9.802365875E0;9.859085185E0
3.821097417E0;1.017883301E-2;-7.640112305E-1;9.783056030E0;9.812848825E0
3.831076417E0;5.703140259E-1;-1.130299530E0;9.810598755E0;9.891950417E0
3.841056417E0;8.286767578E-1;-1.308878174E0;9.773925018E0;9.895932372E0
3.851035417E0;5.536985779E-1;-1.223405914E0;9.788893890E0;9.880574262E0
3.861014417E0;2.092648315E-1;-1.190624084E0;9.804461517E0;9.878706551E0
3.870993417E0;1.206491089E-1;-1.340911560E0;9.758058014E0;9.850497258E0
3.880972417E0;2.164498901E-1;-1.487307129E0;9.787846069E0;9.902568542E0
3.890952417E0;3.942800903E-1;-1.483115845E0;9.851613464E0;9.970425129E0
3.900931417E0;4.471202087E-1;-1.667682037E0;9.774523773E0;9.925844793E0
3.910910417E0;7.430548096E-1;-1.884880371E0;9.831555176E0;1.003814632E1
3.920889417E0;1.135239258E0;-1.848805389E0;9.762398987E0;1.000056416E1
3.930869417E0;1.059347076E0;-1.594633942E0;9.796677704E0;9.981982151E0
3.940848417E0;1.191821594E0;-1.425934753E0;9.801318054E0;9.975949290E0
3.950827417E0;1.219663696E0;-1.491498413E0;9.815239105E0;1.000255296E1
3.960806417E0;8.539741516E-1;-1.438658295E0;9.793983307E0;9.935850168E0
3.970785417E0;5.084925842E-1;-1.296753387E0;9.791588287E0;9.890163560E0
3.980765417E0;9.978250122E-1;-1.372495880E0;9.774972839E0;9.921163929E0
3.990744417E0;9.686357117E-1;-1.410965881E0;9.804311829E0;9.952568025E0
4.000723417E0;1.359323273E0;-1.386267242E0;9.828112335E0;1.001804815E1
4.010702417E0;1.535955963E0;-1.211281128E0;9.805808716E0;9.999012314E0
4.020681417E0;1.757794647E0;-9.241781616E-1;9.765841827E0;9.965721945E0
4.030661417E0;1.662742310E0;-8.864566040E-1;9.779014435E0;9.958897560E0
4.040640417E0;6.924600220E-1;-9.469308472E-1;9.758806458E0;9.829063149E0
4.050619417E0;3.860472107E-1;-9.436376953E-1;9.815388794E0;9.868198505E0
4.060598417E0;1.511856079E-1;-1.033151550E0;9.818382568E0;9.873747793E0
4.070577417E0;7.023394775E-1;-8.714877319E-1;9.774224396E0;9.838101145E0
4.080557417E0;8.249345398E-1;-9.285191345E-1;9.765542450E0;9.844210691E0
4.090536417E0;5.766009521E-1;-8.069718933E-1;9.771679688E0;9.821883537E0
4.100515417E0;2.896476746E-1;-5.860313416E-1;9.815239105E0;9.836983643E0
4.110494417E0;5.996530151E-1;-3.767665100E-1;9.822124786E0;9.847622660E0
4.120474417E0;7.988887024E-1;-4.746629333E-1;9.799821167E0;9.843780928E0
4.130453417E0;6.574328613E-1;-3.189866638E-1;9.731114044E0;9.758511721E0
4.140432417E0;5.566923523E-1;1.115180969E-1;9.828860779E0;9.845244886E0
4.150411417E0;7.387138367E-1;5.194198608E-2;9.798473969E0;9.826417873E0
4.160390417E0;6.607260132E-1;-2.195933533E-1;9.798923035E0;9.823628288E0
4.170370417E0;7.014413452E-1;-5.059478760E-2;9.759854279E0;9.785158932E0
4.180349417E0;6.957531738E-1;-2.483335876E-1;9.759554901E0;9.787474338E0
4.190328417E0;8.789721680E-1;-2.799179077E-1;9.770931244E0;9.814379424E0
4.200307417E0;1.003662872E0;-2.607577515E-1;9.801018677E0;9.855724269E0
4.210286417E0;8.304730225E-1;-1.529818726E-1;9.813442841E0;9.849708081E0
4.220266417E0;6.429130554E-1;-1.655557251E-1;9.749376068E0;9.771953725E0
4.230245417E0;5.866300964E-1;-1.511856079E-1;9.737101593E0;9.755928423E0
4.240224417E0;7.274871826E-1;1.037342834E-1;9.816586304E0;9.844052268E0
4.250203417E0;6.583309937E-1;-2.200424194E-2;9.828860779E0;9.850907983E0
4.260182417E0;3.688330078E-1;-1.600172424E-1;9.802216187E0;9.810457964E0
4.270162417E0;2.989283752E-1;-2.844085693E-2;9.767338715E0;9.771953368E0
4.280141417E0;2.890489197E-1;2.784210205E-2;9.753567352E0;9.757889145E0
4.290120417E0;4.034111023E-1;-1.005908203E-1;9.806108093E0;9.814917981E0
4.300099417E0;4.614903259E-1;-3.248245239E-2;9.792636108E0;9.803558047E0
4.310079417E0;3.986210632E-1;1.511856079E-2;9.772577820E0;9.780715954E0
4.320058417E0;5.601351929E-1;5.538482666E-2;9.750573578E0;9.766806234E0
4.330037417E0;7.523355103E-1;2.933898926E-2;9.760153656E0;9.789150570E0
4.340016417E0;7.466473389E-1;-4.131408691E-2;9.796677704E0;9.825175985E0
4.349995417E0;6.414161682E-1;-1.547781372E-1;9.827663269E0;9.849788643E0
4.359975417E0;4.808001709E-1;4.520599365E-2;9.779613190E0;9.791529325E0
4.369954417E0;6.586303711E-1;3.269201660E-1;9.742191010E0;9.769900533E0
4.379933417E0;5.456153870E-1;9.984237671E-2;9.765093384E0;9.780833985E0
4.389912417E0;5.583389282E-1;-2.395019531E-2;9.789043579E0;9.804982925E0
4.399891417E0;6.328839111E-1;1.243913269E-1;9.812544708E0;9.833719993E0
4.409871417E0;6.686595154E-1;-4.625381470E-2;9.779912567E0;9.802853400E0
4.419850417E0;6.029461670E-1;-2.659968567E-1;9.740394745E0;9.762662966E0
4.429829417E0;6.512956238E-1;-1.703457642E-1;9.804012451E0;9.827098443E0
4.439808417E0;7.447013855E-1;-7.140151978E-2;9.787397003E0;9.815947149E0
4.449787417E0;3.243754578E-1;-2.089654541E-1;9.825567627E0;9.833141166E0
4.459767417E0;4.902305603E-1;2.305206299E-2;9.748477936E0;9.760823708E0
4.469746417E0;5.188211060E-1;-8.921447754E-2;9.765542450E0;9.779721566E0
4.479725417E0;4.460723877E-1;-1.246907043E-1;9.786498871E0;9.797453164E0
4.489704417E0;5.409750366E-1;4.490661621E-3;9.797276459E0;9.812201596E0
4.499684417E0;4.831951904E-1;1.267863464E-1;9.801467743E0;9.814189844E0
4.509663417E0;4.152365112E-1;1.062789917E-2;9.749076691E0;9.757921430E0
4.519642417E0;4.586462402E-1;-1.466949463E-1;9.776170349E0;9.788022399E0
4.529621417E0;2.642005920E-1;-2.492317200E-1;9.752818909E0;9.759579656E0
4.539600417E0;1.056802368E-1;-2.621049500E-1;9.842632141E0;9.846688519E0
4.549580417E0;1.023870850E-1;-2.950364685E-1;9.827812958E0;9.832773625E0
4.559559417E0;1.619631958E-1;-3.698808289E-1;9.761949921E0;9.770297342E0
4.569538417E0;4.439767456E-1;-2.674937439E-1;9.743388519E0;9.757165987E0
4.579517417E0;5.352868652E-1;-1.224453735E-1;9.795330505E0;9.810709689E0
4.589496417E0;6.207591248E-1;-2.032772827E-1;9.819131012E0;9.840833165E0
4.599476417E0;6.719526672E-1;-1.101708984E-1;9.766141205E0;9.789850461E0
4.609455167E0;6.575825500E-1;4.775070190E-2;9.776769104E0;9.798974898E0
4.619434167E0;6.039939880E-1;-8.637039185E-2;9.769584045E0;9.788617931E0
4.629413167E0;4.565505981E-1;-4.939727783E-2;9.806856537E0;9.817602237E0
4.639393167E0;4.225712585E-1;-2.248324585E-1;9.799072723E0;9.810756461E0
4.649372167E0;3.112028503E-1;-1.059796143E-1;9.796528015E0;9.802042647E0
4.659351167E0;2.252815247E-1;-1.724414062E-1;9.772727509E0;9.776844622E0
4.669330167E0;1.284329224E-1;-1.859133911E-1;9.772428131E0;9.775040173E0
4.679309167E0;1.944456482E-1;-2.496807861E-1;9.814340973E0;9.819441855E0
4.689289167E0;4.204756165E-1;-2.833607483E-1;9.746232605E0;9.759413048E0
4.699268167E0;2.998265076E-1;7.484436035E-3;9.872420197E0;9.876974865E0
4.709247167E0;3.844006348E-1;-1.231938171E-1;9.769733734E0;9.778069227E0
4.719226167E0;2.751278687E-1;-1.631607056E-2;9.767787781E0;9.771675378E0
4.729205167E0;1.790277100E-1;-1.049317932E-1;9.761201477E0;9.763406981E0
4.739185167E0;5.164260864E-2;2.110610962E-2;9.798623657E0;9.798782476E0
4.749164167E0;-2.148033142E-1;4.011657715E-2;9.810149689E0;9.812583081E0
4.759143167E0;-2.357597351E-1;-9.864486694E-2;9.768985291E0;9.772327618E0
4.769122167E0;2.784210205E-2;-4.311035156E-2;9.754615173E0;9.754750169E0
4.779101167E0;7.634124756E-3;1.971400452E-1;9.814640350E0;9.816623029E0
4.789081167E0;1.707948303E-1;1.182540894E-2;9.814490662E0;9.815983785E0
4.799060167E0;2.685415649E-1;3.487747192E-2;9.796977081E0;9.800718899E0
4.809039167E0;7.843688965E-2;1.962419128E-1;9.761500854E0;9.763788310E0
4.819018167E0;-4.505630493E-2;2.050735474E-1;9.757159882E0;9.759418742E0
4.828998167E0;-3.326083374E-1;2.655477905E-1;9.795330505E0;9.804572589E0
4.838977167E0;-3.198847961E-1;4.685256958E-2;9.841434631E0;9.846743474E0
4.848956167E0;-2.106120300E-1;4.565505981E-2;9.784852295E0;9.787225156E0
4.858935167E0;-4.046086121E-1;2.109114075E-1;9.791588287E0;9.802213675E0
4.868914167E0;-2.968327332E-1;2.890489197E-1;9.760902100E0;9.769691333E0
4.878894167E0;1.770817566E-1;3.860472107E-1;9.761949921E0;9.771185018E0
4.888873167E0;5.643264771E-1;2.149530029E-1;9.791288910E0;9.809893357E0
4.898852167E0;5.816903687E-1;2.230361938E-1;9.814340973E0;9.834093632E0
4.908831167E0;3.903881836E-1;3.950285339E-1;9.790390778E0;9.806130840E0
4.918810167E0;1.853146362E-1;2.896476746E-1;9.774374084E0;9.780420545E0
4.928790167E0;7.484436035E-4;2.794688416E-1;9.802665253E0;9.806648227E0
4.938769167E0;-1.932481384E-1;2.136058044E-1;9.763446808E0;9.767695012E0
4.948748167E0;-1.326242065E-1;1.501377869E-1;9.791887665E0;9.793936623E0
4.958727167E0;2.568658447E-1;7.364685059E-2;9.756411438E0;9.760070085E0
4.968706167E0;6.171665955E-1;-1.776805115E-1;9.757459259E0;9.778572297E0
4.978686167E0;6.915618896E-1;-1.462458801E-1;9.757608948E0;9.783178322E0
4.988665167E0;5.728587341E-1;1.435514832E-1;9.797426147E0;9.815209283E0
4.998644167E0;5.652246094E-1;-1.158590698E-1;9.794432373E0;9.811412115E0
5.008623167E0;4.686753845E-1;-3.284170532E-1;9.824370117E0;9.841024468E0
5.018602167E0;2.296224976E-1;-3.921844482E-1;9.758207703E0;9.768784607E0
5.028582167E0;-2.453398132E-1;-3.016227722E-1;9.788444824E0;9.796163535E0
5.038561167E0;-2.299218750E-1;-4.315525818E-1;9.801168365E0;9.813358397E0
5.048540167E0;-1.407073975E-1;-4.297563171E-1;9.818681946E0;9.829089694E0
5.058519167E0;1.218466187E-1;-2.037263489E-1;9.804162140E0;9.807035551E0
5.068499167E0;4.159849548E-1;-2.538720703E-1;9.805060272E0;9.817163615E0
5.078478167E0;4.047583008E-1;-2.631527710E-1;9.730814667E0;9.742783624E0
5.088457167E0;1.737886047E-1;-7.229965210E-2;9.835596771E0;9.837397703E0
5.098436167E0;-1.077758789E-1;6.556365967E-2;9.795929260E0;9.796741515E0
5.108415167E0;-4.227209473E-1;1.490899658E-1;9.836195526E0;9.846403569E0
5.118395167E0;-5.221142578E-1;3.981719971E-2;9.766739960E0;9.780766746E0
5.128374167E0;-5.948629761E-1;-5.523513794E-2;9.741592255E0;9.759894084E0
5.138353167E0;-5.887257385E-1;-1.577719116E-1;9.798324280E0;9.817262789E0
5.148332167E0;-7.292834473E-1;-1.137634277E-1;9.791737976E0;9.819517761E0
5.158311167E0;-5.267546082E-1;3.385958862E-1;9.797426147E0;9.817417008E0
5.168291167E0;8.232879639E-3;4.102967834E-1;9.771529999E0;9.780143647E0
5.178270167E0;3.158432007E-1;-1.856140137E-2;9.751471710E0;9.756602993E0
5.188249167E0;-2.335144043E-1;1.133143616E-1;9.844727783E0;9.848148773E0
5.198228167E0;-4.926255798E-1;1.303788757E-1;9.800719299E0;9.813958294E0
5.208208167E0;-3.107537842E-1;-1.772314453E-1;9.775721283E0;9.782264845E0
5.218187167E0;-3.857478333E-1;-2.883004761E-1;9.775272217E0;9.787127539E0
5.228166167E0;-3.845503235E-1;-2.165995789E-1;9.814340973E0;9.824259924E0
5.238145167E0;1.945953369E-2;-1.025367737E-1;9.757309570E0;9.757867724E0
5.248124167E0;3.429368591E-1;-5.688171387E-2;9.811347198E0;9.817503505E0
5.258104167E0;5.628295898E-1;-9.819580078E-2;9.792636108E0;9.809288533E0
5.268083167E0;4.447251892E-1;-4.475692749E-2;9.745783539E0;9.756027904E0
5.278062167E0;2.405497742E-1;9.190887451E-2;9.740394745E0;9.743798090E0
5.288041167E0;-1.913021851E-1;2.173480225E-1;9.848320312E0;9.852575788E0
5.298020167E0;-5.432203674E-1;1.805245972E-1;9.792037354E0;9.808754917E0
5.308000167E0;-6.652166748E-1;-3.517684937E-2;9.800120544E0;9.822734513E0
5.317979167E0;-5.354365540E-1;-4.324507141E-1;9.718240814E0;9.742582329E0
5.327958167E0;-4.222718811E-1;-2.167492676E-1;9.783505096E0;9.795012290E0
5.337937167E0;3.004252625E-1;1.142124939E-1;9.856403503E0;9.861642351E0
5.347917167E0;5.158273315E-1;-1.821711731E-1;9.766440582E0;9.781749630E0
5.357896167E0;2.540217590E-1;-1.264869690E-1;9.807006226E0;9.811110901E0
5.367875167E0;1.203497314E-1;-3.308120728E-2;9.733059998E0;9.733860249E0
5.377854167E0;1.902543640E-1;-5.733078003E-2;9.811796265E0;9.813808103E0
5.387833167E0;-1.317260742E-2;-3.653901672E-1;9.767189026E0;9.774030129E0
5.397813167E0;-1.231938171E-1;-4.635859680E-1;9.815089417E0;9.826803596E0
5.407792167E0;-6.137237549E-2;-5.251080322E-1;9.782157898E0;9.796433951E0
5.417771167E0;-9.684860229E-2;-5.102888489E-1;9.790989532E0;9.804756518E0
5.427750167E0;8.202941895E-2;-4.944218445E-1;9.771679688E0;9.784523785E0
5.437729167E0;3.796105957E-1;-4.656816101E-1;9.804910583E0;9.823300622E0
5.447709167E0;6.792874146E-1;-3.016227722E-1;9.847571869E0;9.875579953E0
5.457688167E0;5.760021973E-1;-3.402424622E-1;9.755513306E0;9.778424378E0
5.467667167E0;2.537223816E-1;-1.969903564E-1;9.738299103E0;9.743595315E0
5.477646167E0;8.143066406E-2;-1.646575928E-2;9.810449066E0;9.810800831E0
5.487625167E0;-7.155120850E-2;-2.535726929E-1;9.838291168E0;9.841818521E0
5.497605167E0;-2.074685669E-1;-2.276765442E-1;9.829010468E0;9.833835802E0
5.507584167E0;-2.308200073E-1;-3.119512939E-1;9.751172333E0;9.758890990E0
5.517563167E0;8.607101440E-2;-2.757266235E-1;9.786199493E0;9.790461374E0
5.527542167E0;2.225871277E-1;-3.963757324E-1;9.744586029E0;9.755184039E0
5.537522167E0;-1.856140137E-2;-2.456391907E-1;9.789193268E0;9.792292274E0
5.547501167E0;-6.556365967E-2;-2.441423035E-1;9.840985565E0;9.844231862E0
5.557480167E0;8.128097534E-2;3.891906738E-3;9.757758636E0;9.758097937E0
5.567459167E0;-3.219804382E-1;2.619552612E-1;9.756112061E0;9.764938018E0
5.577438167E0;-6.716532898E-1;-1.945953369E-3;9.851763153E0;9.874632102E0
5.587418167E0;-6.352789307E-1;-8.412506104E-2;9.772128754E0;9.793117824E0
5.597397167E0;-5.903723145E-1;-2.040257263E-1;9.853409729E0;9.873188404E0
5.607376167E0;-4.736151123E-1;3.891906738E-2;9.766590271E0;9.778144583E0
5.617355292E0;9.011260986E-2;4.927752686E-1;9.736502838E0;9.749381276E0
5.627334292E0;2.968327332E-1;-2.597099304E-1;9.785600739E0;9.793545871E0
5.637314292E0;-4.969665527E-2;-2.639012146E-1;9.816885681E0;9.820557931E0
5.647293292E0;-6.206094360E-1;2.492317200E-1;9.822573853E0;9.845315110E0
5.657272292E0;-8.666976929E-1;2.168989563E-1;9.777517548E0;9.818251343E0
5.667251292E0;-6.848258972E-1;4.760101318E-2;9.747579803E0;9.771722693E0
5.677230292E0;-7.390132141E-1;-1.206491089E-1;9.808353424E0;9.836894511E0
5.687210292E0;-7.512876892E-1;-3.754193115E-1;9.801767120E0;9.837683240E0
5.697189292E0;-3.704795837E-1;-2.589614868E-2;9.766739960E0;9.773798400E0
5.707168292E0;4.346960449E-1;-2.665956116E-1;9.728419647E0;9.741775131E0
5.717147292E0;5.011578369E-1;-3.742218018E-2;9.786947937E0;9.799842321E0
5.727127292E0;3.016227722E-1;5.224136353E-2;9.815239105E0;9.820011413E0
5.737106292E0;1.881587219E-1;1.451980591E-1;9.807604980E0;9.810484271E0
5.747085292E0;8.532257080E-2;1.800755310E-1;9.770781555E0;9.772813276E0
5.757064292E0;-1.422042847E-2;3.742218018E-2;9.783355408E0;9.783437314E0
5.767043292E0;4.834945679E-2;-1.619631958E-1;9.767937469E0;9.769399785E0
5.777023292E0;1.390608215E-1;3.981719971E-2;9.799970856E0;9.801038317E0
5.787002292E0;4.020639038E-1;9.205856323E-2;9.802665253E0;9.811339165E0
5.796981292E0;4.372407532E-1;-1.930984497E-2;9.743089142E0;9.752914353E0
5.806960292E0;1.362167358E-1;-9.879455566E-2;9.845775604E0;9.847213444E0
5.816939292E0;2.255809021E-1;-1.332229614E-2;9.747579803E0;9.750198780E0
5.826919292E0;4.555027771E-1;1.157093811E-1;9.802964630E0;9.814223707E0
5.836898292E0;4.055067444E-1;1.079255676E-1;9.785151672E0;9.794145032E0
5.846877292E0;2.095642090E-2;7.439529419E-2;9.787247314E0;9.787552494E0
5.856856292E0;1.496887207E-4;-2.200424194E-2;9.843679962E0;9.843704557E0
5.866835292E0;5.508544922E-2;-4.553530884E-1;9.711953888E0;9.722778881E0
5.876815292E0;-5.328918457E-2;-6.839277649E-1;9.808802490E0;9.832761729E0
5.886794292E0;1.582209778E-1;-3.993695068E-1;9.778864746E0;9.788295337E0
5.896773292E0;3.335064697E-1;-5.758525085E-1;9.800419922E0;9.822986477E0
5.906752292E0;1.064286804E-1;-8.464897156E-1;9.806706848E0;9.843747818E0
5.916732292E0;1.074765015E-1;-4.995112610E-1;9.795180817E0;9.808497843E0
5.926711292E0;3.529660034E-1;-3.800596619E-1;9.734706573E0;9.748514883E0
5.936690292E0;4.565505981E-1;-2.209405518E-1;9.748927002E0;9.762112008E0
5.946669292E0;3.100053406E-1;-1.044827271E-1;9.833201752E0;9.838642012E0
5.956648292E0;1.139131165E-1;-2.444416809E-1;9.789342957E0;9.793056900E0
5.966628292E0;-1.058299255E-1;-1.866618347E-1;9.803413696E0;9.805761710E0
5.976607292E0;-9.669891357E-2;-2.803669739E-1;9.796078949E0;9.800567284E0
5.986586292E0;-3.183879089E-1;-4.929249573E-1;9.752519531E0;9.770157782E0
5.996565292E0;-9.669891357E-2;-6.080355835E-1;9.743687897E0;9.763119982E0
6.006544292E0;3.817062378E-2;-3.261717224E-1;9.848470001E0;9.853943695E0
6.016524292E0;-3.547622681E-2;-5.301974487E-1;9.796228638E0;9.810630123E0
6.026503292E0;-2.701881409E-1;-7.255412292E-1;9.773326263E0;9.803944000E0
6.036482292E0;-4.453239441E-1;-5.444178772E-1;9.754315796E0;9.779641143E0
6.046461292E0;-1.618135071E-1;-4.343966675E-1;9.827064514E0;9.837991718E0
6.056440292E0;-2.035766602E-2;-1.128652954E-1;9.814041595E0;9.814711684E0
6.066420292E0;2.601589966E-1;1.619631958E-1;9.730365601E0;9.735190265E0
6.076399292E0;2.272274780E-1;1.923500061E-1;9.815089417E0;9.819603409E0
6.086378292E0;5.149291992E-2;2.526745605E-1;9.777367859E0;9.780767772E0
6.096357292E0;-1.035845947E-1;4.198768616E-1;9.787846069E0;9.797395420E0
6.106337292E0;-3.577560425E-2;1.930984497E-1;9.779912567E0;9.781884109E0
6.116316292E0;7.499404907E-2;3.725752258E-1;9.757309570E0;9.764708212E0
6.126295292E0;-1.594184875E-1;2.676434326E-1;9.819580078E0;9.824520353E0
6.136274292E0;-1.652563477E-1;2.966830444E-1;9.775272217E0;9.781169531E0
6.146253292E0;-9.340576172E-2;4.251159668E-1;9.814790039E0;9.824436459E0
6.156233292E0;2.131567383E-1;3.439846802E-1;9.782157898E0;9.790524725E0
6.166212292E0;1.422042847E-1;5.206173706E-1;9.766290894E0;9.781191253E0
6.176191292E0;-1.140628052E-1;2.878514099E-1;9.789043579E0;9.793939093E0
6.186170292E0;2.215393066E-1;3.236270142E-1;9.781559143E0;9.789418439E0
6.196149292E0;3.779640198E-1;4.948709106E-1;9.807904358E0;9.827651902E0
6.206129292E0;2.342628479E-1;4.005670166E-1;9.788295135E0;9.799288478E0
6.216108292E0;3.353027344E-2;4.887336731E-1;9.733808441E0;9.746128034E0
6.226087292E0;1.454974365E-1;6.442602539E-1;9.796677704E0;9.818917191E0
6.236066292E0;1.942959595E-1;7.038363647E-1;9.761051788E0;9.788323072E0
6.246046292E0;1.926493835E-1;5.990542603E-1;9.783205719E0;9.803422562E0
6.256025292E0;3.685336304E-1;6.137237549E-1;9.765841827E0;9.792044755E0
6.266004292E0;2.884501648E-1;5.170248413E-1;9.743388519E0;9.761359435E0
6.275983292E0;-2.239343262E-1;9.057664490E-1;9.914632416E0;9.958438401E0
6.285962292E0;-2.787203979E-1;5.451663208E-1;9.766739960E0;9.785913387E0
6.295942292E0;-4.397854614E-1;1.978884888E-1;9.803563385E0;9.815417778E0
6.305921292E0;-2.917433167E-1;1.249900818E-1;9.785900116E0;9.791045795E0
6.315900292E0;-3.023712158E-2;3.715274048E-1;9.745633850E0;9.752759919E0
6.325879292E0;1.237925720E-1;2.528242493E-1;9.788594513E0;9.792641484E0
6.335858292E0;1.591191101E-1;4.131408691E-1;9.817334747E0;9.827312237E0
6.345838292E0;3.302133179E-1;3.366499329E-1;9.817783813E0;9.829102351E0
6.355817292E0;3.183879089E-1;3.347039795E-1;9.770332489E0;9.781247086E0
6.365796292E0;1.236428833E-1;2.935395813E-1;9.764045563E0;9.769239418E0
6.375775292E0;3.206332397E-1;6.436614990E-1;9.813592529E0;9.839903665E0
6.385754292E0;1.960922241E-1;5.104385376E-1;9.733958130E0;9.749304618E0
6.395734292E0;-9.580078125E-3;3.836521912E-1;9.832752686E0;9.840239131E0
6.405713292E0;3.906875610E-2;2.908451843E-1;9.746082916E0;9.750499962E0
6.415692292E0;8.143066406E-2;9.250762939E-2;9.814041595E0;9.814815386E0
6.425671292E0;1.182540894E-2;1.496887207E-2;9.749675446E0;9.749694108E0
6.435651292E0;3.444337463E-1;8.726852417E-2;9.806856537E0;9.813291269E0
6.445630292E0;2.261796570E-1;4.721182251E-1;9.786648560E0;9.800639922E0
6.455609292E0;1.309776306E-1;6.092330933E-2;9.761500854E0;9.762569627E0
6.465588292E0;1.044827271E-1;2.258802795E-1;9.769584045E0;9.772753499E0
6.475567292E0;-2.993774414E-4;5.998027039E-1;9.774972839E0;9.793357820E0
6.485547292E0;-2.709365845E-2;2.600093079E-1;9.854756927E0;9.858223623E0
6.495526292E0;-2.035766602E-1;2.854563904E-1;9.762698364E0;9.768992177E0
6.505505292E0;9.475296021E-2;3.614982605E-1;9.818532257E0;9.825641699E0
6.515484292E0;-4.924758911E-2;4.022135925E-1;9.762548676E0;9.770954802E0
6.525463292E0;3.802093506E-2;6.956034851E-1;9.814790039E0;9.839482370E0
6.535443292E0;2.544708252E-2;4.718188477E-1;9.700577545E0;9.712078320E0
6.545422292E0;1.496887207E-3;2.788700867E-1;9.839189301E0;9.843140599E0
6.555401292E0;-1.466949463E-2;7.976911926E-1;9.793234863E0;9.825679392E0
6.565380292E0;1.266366577E-1;5.014572144E-1;9.734257507E0;9.747987762E0
6.575359292E0;2.742297363E-1;1.736389160E-1;9.767039337E0;9.772431112E0
6.585339292E0;1.749861145E-1;3.109034729E-1;9.839937744E0;9.846403197E0
6.595318292E0;1.788780212E-1;4.707710266E-1;9.779014435E0;9.791973551E0
6.605297292E0;1.573228455E-1;3.041674805E-1;9.804910583E0;9.810888843E0
6.615276792E0;1.191522217E-1;-1.440005493E-1;9.751920776E0;9.753711716E0
6.625256792E0;-2.918930054E-2;1.326242065E-1;9.783654785E0;9.784597189E0
6.635235792E0;-3.113525391E-2;4.546046448E-1;9.792935486E0;9.803531008E0
6.645214792E0;2.634521484E-2;3.824546814E-1;9.811945953E0;9.819432216E0
6.655193792E0;7.394622803E-2;3.568579102E-1;9.779762878E0;9.786550852E0
6.665172792E0;5.852828979E-2;3.896397400E-1;9.783804474E0;9.791735018E0
6.675152792E0;6.361770630E-2;2.796185303E-1;9.811945953E0;9.816135550E0
6.685131792E0;4.999603271E-2;7.589218140E-2;9.769883423E0;9.770306102E0
6.695110792E0;2.918930054E-2;-6.706054688E-2;9.811347198E0;9.811619794E0
6.705089792E0;-3.023712158E-2;9.071136475E-2;9.717192993E0;9.717663428E0
6.715068792E0;-1.261875916E-1;2.222877502E-1;9.822573853E0;9.825899055E0
6.725048792E0;-1.149609375E-1;2.600093079E-1;9.784852295E0;9.788981320E0
6.735027792E0;5.972579956E-2;1.460961914E-1;9.745484161E0;9.746762170E0
6.745006792E0;2.234852600E-1;2.739303589E-1;9.814790039E0;9.821155075E0
6.754985792E0;1.534309387E-1;4.158352661E-1;9.766290894E0;9.776343787E0
6.764965792E0;2.622546387E-1;2.041754150E-1;9.802515564E0;9.808148473E0
6.774944792E0;1.353186035E-1;5.251080322E-1;9.728120270E0;9.743221929E0
6.784923792E0;1.767823792E-1;1.763333130E-1;9.829309845E0;9.832480739E0
6.794902792E0;-6.167175293E-2;3.748205566E-1;9.831854553E0;9.839189896E0
6.804881792E0;5.987548828E-2;3.659889221E-1;9.733808441E0;9.740870584E0
6.814861792E0;3.008743286E-2;1.945953369E-3;9.776918793E0;9.776965282E0
6.824840792E0;2.469863892E-2;4.068539429E-1;9.823771362E0;9.832223753E0
6.834819792E0;8.846603394E-2;1.013392639E-1;9.828262024E0;9.829182585E0
6.844798792E0;-5.613327026E-2;-5.239105225E-2;9.742340698E0;9.742643278E0
6.854777792E0;6.735992432E-2;2.881507874E-1;9.822124786E0;9.826581479E0
6.864757792E0;-9.280700684E-3;4.686753845E-1;9.736353149E0;9.747631271E0
6.874736792E0;5.957611084E-2;3.412902832E-2;9.788295135E0;9.788535936E0
6.884715792E0;-1.371148682E-1;3.275189209E-1;9.787546692E0;9.793984857E0
6.894694792E0;-9.969268799E-2;1.639091492E-1;9.793085175E0;9.794964118E0
6.904673792E0;6.586303711E-3;1.559756470E-1;9.760752411E0;9.762000789E0
6.914653792E0;-5.358856201E-2;2.291734314E-1;9.802964630E0;9.805789501E0
6.924632792E0;8.083190918E-2;3.439846802E-1;9.826765137E0;9.833116104E0
6.934611792E0;2.859054565E-1;3.591032410E-1;9.737550659E0;9.748363448E0
6.944590792E0;2.127076721E-1;2.826123047E-1;9.784702606E0;9.791093880E0
6.954570792E0;9.325607300E-2;3.890409851E-1;9.767937469E0;9.776126635E0
6.964549792E0;2.191442871E-1;2.121089172E-1;9.810000000E0;9.814739651E0
6.974528792E0;2.926414490E-1;1.761836243E-1;9.768386536E0;9.774357022E0
6.984507792E0;3.306623840E-1;4.219725037E-1;9.783804474E0;9.798480923E0
6.994486792E0;1.020877075E-1;2.414479065E-1;9.790690155E0;9.794198931E0
7.004466792E0;-7.664062500E-2;2.134561157E-1;9.823621674E0;9.826239366E0
7.014445792E0;1.558259583E-1;2.362088013E-1;9.719588013E0;9.723706467E0
7.024424792E0;4.760101318E-2;2.444416809E-1;9.823022919E0;9.826179158E0
7.034403792E0;-4.101470947E-2;5.020559692E-1;9.830806732E0;9.843703744E0
7.044382792E0;1.856140137E-2;6.920109558E-1;9.695338440E0;9.720021150E0
7.054362792E0;1.047821045E-2;4.516108704E-1;9.814490662E0;9.824881125E0
7.064341792E0;-6.436614990E-3;6.634204102E-1;9.775122528E0;9.797611368E0
7.074320792E0;2.543211365E-1;5.643264771E-1;9.777367859E0;9.796941659E0
7.084299792E0;6.526428223E-2;4.836442566E-1;9.826166382E0;9.838278150E0
7.094279792E0;1.288819885E-1;2.917433167E-1;9.725425873E0;9.730654302E0
7.104258792E0;2.080673218E-2;5.595364380E-1;9.850266266E0;9.866167415E0
7.114237792E0;-8.562194824E-2;6.683601379E-1;9.755812683E0;9.779055041E0
7.124216792E0;-1.194515991E-1;6.493496704E-1;9.796528015E0;9.818751694E0
7.134195792E0;-3.128494263E-2;5.480104065E-1;9.737999725E0;9.753457479E0
7.144175792E0;6.586303711E-2;4.331991577E-1;9.774523773E0;9.784340266E0
7.154154792E0;6.855743408E-2;8.274792480E-1;9.798324280E0;9.833441957E0
7.164133792E0;2.402503967E-1;4.266128540E-1;9.773775330E0;9.786031012E0
7.174112792E0;9.684860229E-2;4.924758911E-1;9.795629883E0;9.808479849E0
7.184091792E0;9.849517822E-2;5.319937134E-1;9.761949921E0;9.776931260E0
7.194071792E0;1.520837402E-1;2.059716797E-1;9.804910583E0;9.808252920E0
7.204050792E0;1.032852173E-2;3.173400879E-1;9.777966614E0;9.783120285E0
7.214029792E0;2.079176331E-1;3.281176758E-1;9.809700623E0;9.817388515E0
7.224008792E0;1.534309387E-1;4.002676392E-1;9.764045563E0;9.773450823E0
7.233987792E0;1.594184875E-1;4.008663940E-1;9.808203735E0;9.817686521E0
7.243967792E0;5.298980713E-2;3.065625000E-1;9.719438324E0;9.724416169E0
7.253946792E0;1.158590698E-1;6.608757019E-1;9.829160156E0;9.852033769E0
7.263925792E0;-5.089416504E-3;2.683918762E-1;9.863289185E0;9.866941453E0
7.273904792E0;1.553768921E-1;3.812571716E-1;9.703870697E0;9.712600348E0
7.283884792E0;2.020797729E-2;6.846762085E-1;9.828860779E0;9.852699837E0
7.293863792E0;4.266128540E-2;4.632865906E-1;9.757908325E0;9.768993261E0
7.303842792E0;7.708969116E-2;5.854325867E-1;9.798473969E0;9.816250111E0
7.313821792E0;9.101074219E-2;5.057981873E-1;9.807455292E0;9.820911061E0
7.323800792E0;-1.466949463E-2;5.547463989E-1;9.781708832E0;9.797437748E0
7.333780792E0;6.227050781E-2;4.695735168E-1;9.752369843E0;9.763866778E0
7.343759792E0;-2.844085693E-3;8.858578491E-1;9.802814941E0;9.842760436E0
7.353738792E0;1.302291870E-2;5.408253479E-1;9.776320038E0;9.791276481E0
7.363717792E0;-4.535568237E-2;4.574487305E-1;9.802964630E0;9.813736904E0
7.373696792E0;-6.721023560E-2;5.839356995E-1;9.785600739E0;9.803238237E0
7.383676792E0;6.616241455E-2;4.387376404E-1;9.787846069E0;9.797897675E0
7.393655792E0;8.711883545E-2;1.932481384E-1;9.777367859E0;9.779665474E0
7.403634792E0;1.029858398E-1;2.737806702E-1;9.768386536E0;9.772765087E0
7.413613792E0;4.206253052E-2;3.659889221E-1;9.779912567E0;9.786848674E0
7.423593792E0;-7.933502197E-3;3.110531616E-1;9.784403229E0;9.789349496E0
7.433572792E0;5.568420410E-2;5.688171387E-2;9.785301361E0;9.785625120E0
7.443551792E0;7.349716187E-2;7.289840698E-2;9.786498871E0;9.787046345E0
7.453530792E0;8.397537231E-2;9.280700684E-2;9.791139221E0;9.791939147E0
7.463509792E0;6.930587769E-2;9.026229858E-2;9.789642334E0;9.790303755E0
7.473489792E0;3.891906738E-2;2.215393066E-2;9.795779572E0;9.795881936E0
7.483468792E0;5.718109131E-2;4.251159668E-2;9.774374084E0;9.774633786E0
7.493447792E0;9.370513916E-2;6.676116943E-2;9.784702606E0;9.785379032E0
7.503426792E0;1.327738953E-1;7.364685059E-2;9.782756653E0;9.783934817E0
7.513405792E0;7.604187012E-2;5.463638306E-2;9.780361633E0;9.780809843E0
7.523385792E0;1.511856079E-2;5.149291992E-2;9.795330505E0;9.795477518E0
7.533364792E0;1.032852173E-2;5.583389282E-2;9.783205719E0;9.783370495E0
7.543343792E0;3.577560425E-2;6.092330933E-2;9.785001984E0;9.785257041E0
7.553322792E0;7.948471069E-2;8.292755127E-2;9.780361633E0;9.781036166E0
7.563301792E0;1.053808594E-1;9.984237671E-2;9.779164124E0;9.780241540E0
7.573281792E0;1.017883301E-1;9.610015869E-2;9.784852295E0;9.785853593E0
7.583260792E0;9.969268799E-2;8.607101440E-2;9.784852295E0;9.785738668E0
7.593239792E0;1.107696533E-1;8.577163696E-2;9.780960388E0;9.781963648E0
7.603218792E0;7.484436035E-2;5.493576050E-2;9.788594513E0;9.789034792E0
7.613198542E0;4.984634399E-2;4.520599365E-2;9.791288910E0;9.791520145E0
7.623177542E0;8.502319336E-2;7.185058594E-2;9.790390778E0;9.791023594E0
7.633156542E0;6.077362061E-2;7.140151978E-2;9.789193268E0;9.789642304E0
7.643135542E0;4.445755005E-2;6.586303711E-2;9.787097626E0;9.787420209E0
7.653114542E0;2.469863892E-2;4.819976807E-2;9.797426147E0;9.797575841E0
7.663094542E0;1.541793823E-2;3.787124634E-2;9.786349182E0;9.786434604E0
7.673073542E0;4.924758911E-2;7.319778442E-2;9.790839844E0;9.791237311E0
7.683052542E0;6.496490479E-2;6.601272583E-2;9.785301361E0;9.785739668E0
7.693031542E0;5.972579956E-2;6.451583862E-2;9.788744202E0;9.789139008E0
7.703010542E0;8.666976929E-2;1.324745178E-1;9.787097626E0;9.788377858E0
7.712990542E0;8.202941895E-2;1.082249451E-1;9.782307587E0;9.783250134E0
7.722969542E0;9.789642334E-2;1.127156067E-1;9.773925018E0;9.775065155E0
7.732948542E0;8.277786255E-2;9.864486694E-2;9.781858521E0;9.782706124E0
7.742927542E0;7.574249268E-2;2.183958435E-1;9.788594513E0;9.791323517E0
7.752906542E0;1.137634277E-2;7.170089722E-2;9.791438599E0;9.791707730E0
7.762886542E0;1.631607056E-2;1.023870850E-1;9.786349182E0;9.786898367E0
7.772865542E0;3.861968994E-2;5.493576050E-2;9.780062256E0;9.780292795E0
7.782844542E0;5.568420410E-2;5.403762817E-2;9.785750427E0;9.786058053E0
7.792823542E0;7.439529419E-2;3.008743286E-2;9.787846069E0;9.788175039E0
7.802803542E0;6.122268677E-2;-8.262817383E-2;9.784103851E0;9.784644286E0
7.812782542E0;5.044509888E-2;-4.505630493E-2;9.790390778E0;9.790624411E0
7.822761542E0;6.840774536E-2;-7.634124756E-2;9.788444824E0;9.788981545E0
7.832740542E0;7.379653931E-2;-2.395019531E-2;9.782307587E0;9.782615257E0
7.842719542E0;7.514373779E-2;7.933502197E-3;9.791887665E0;9.792179204E0
7.852699542E0;6.017486572E-2;2.574645996E-2;9.783654785E0;9.783873714E0
7.862678542E0;6.167175293E-2;3.068618774E-2;9.784103851E0;9.784346336E0
7.872657542E0;5.643264771E-2;5.388793945E-2;9.784852295E0;9.785163411E0
7.882636542E0;6.017486572E-2;7.020401001E-2;9.784103851E0;9.784540755E0
7.892616542E0;6.750961304E-2;1.318757629E-1;9.783205719E0;9.784327412E0
7.902595542E0;5.104385376E-2;1.851649475E-1;9.793534241E0;9.795417523E0
7.912574542E0;8.202941895E-2;4.580474854E-2;9.785600739E0;9.786051743E0
7.922553542E0;8.831634521E-2;2.257305908E-1;9.779463501E0;9.782466992E0
7.932532542E0;1.133143616E-1;9.370513916E-2;9.774972839E0;9.776078703E0
7.942512542E0;9.789642334E-2;5.703140259E-2;9.782606964E0;9.783263019E0
7.952491542E0;4.400848389E-2;8.292755127E-2;9.793983307E0;9.794433253E0
7.962470542E0;-2.125579834E-2;1.916015625E-2;9.808952179E0;9.808993922E0
7.972449542E0;-2.739303589E-2;6.256988525E-2;9.787097626E0;9.787335966E0
7.982428542E0;1.676513672E-2;7.798782349E-2;9.778715057E0;9.779040410E0
7.992408542E0;1.070274353E-1;-3.382965088E-2;9.773925018E0;9.774569534E0
8.002387542E0;1.109193420E-1;-3.652404785E-2;9.782157898E0;9.782854913E0
8.012366542E0;8.547225952E-2;1.019380188E-1;9.783355408E0;9.784259803E0
8.022345542E0;8.457412720E-2;1.342707825E-1;9.777218170E0;9.778505846E0
8.032324542E0;8.367599487E-2;2.784210205E-2;9.784702606E0;9.785099997E0
8.042304542E0;7.185058594E-2;3.128494263E-2;9.789492645E0;9.789806306E0
8.052283542E0;6.975494385E-2;8.996292114E-2;9.783654785E0;9.784317045E0
8.062262542E0;7.484436035E-2;-2.395019531E-3;9.785151672E0;9.785438195E0
8.072241542E0;8.307723999E-2;-1.556762695E-2;9.785900116E0;9.786265133E0
8.082221542E0;8.098159790E-2;5.224136353E-2;9.788295135E0;9.788769526E0
8.092200542E0;7.499404907E-2;4.999603271E-2;9.790989532E0;9.791404380E0
8.102179542E0;6.691085815E-2;4.385879517E-2;9.781858521E0;9.782185685E0
8.112158542E0;5.104385376E-2;9.131011963E-3;9.793085175E0;9.793222457E0
8.122137542E0;6.571334839E-2;6.182144165E-2;9.788594513E0;9.789010301E0
8.132117542E0;6.975494385E-2;1.288819885E-1;9.791737976E0;9.792834570E0
8.142096542E0;6.391708374E-2;8.577163696E-2;9.782157898E0;9.782742729E0
8.152075542E0;5.463638306E-2;1.272354126E-1;9.785301361E0;9.786281046E0
8.162054542E0;4.056564331E-2;1.224453735E-1;9.788594513E0;9.789444365E0
8.172033542E0;5.733078003E-2;1.327738953E-1;9.785451050E0;9.786519707E0
8.182013542E0;8.681945801E-2;3.682342529E-1;9.775122528E0;9.782441133E0
8.191992542E0;8.637039185E-2;-1.639091492E-1;9.790839844E0;9.792592655E0
8.201971542E0;9.490264893E-2;-9.864486694E-2;9.782756653E0;9.783714277E0
8.211950542E0;8.472381592E-2;1.781295776E-2;9.785001984E0;9.785384982E0
8.221930542E0;6.346801758E-2;-3.936813354E-2;9.789642334E0;9.789927225E0
8.231909542E0;5.942642212E-2;2.080673218E-2;9.784403229E0;9.784605815E0
8.241888542E0;5.373825073E-2;1.496887207E-4;9.793384552E0;9.793531988E0
8.251867542E0;4.745132446E-2;3.382965088E-2;9.789792023E0;9.789965471E0
8.261846542E0;4.849914551E-2;7.020401001E-2;9.799372101E0;9.799743585E0
8.271826542E0;4.655319214E-2;4.984634399E-2;9.789193268E0;9.789430867E0
8.281805542E0;7.155120850E-2;1.227447510E-2;9.792785797E0;9.793054881E0
8.291784542E0;8.247848511E-2;-0.000000000E0;9.782756653E0;9.783104335E0
8.301763542E0;6.691085815E-2;4.355941772E-2;9.782307587E0;9.782633398E0
8.311742542E0;6.735992432E-2;3.532653809E-2;9.788594513E0;9.788890022E0
8.321722542E0;5.688171387E-2;4.849914551E-2;9.785001984E0;9.785287503E0
8.331701542E0;6.077362061E-2;6.780899048E-2;9.792486420E0;9.792909770E0
8.341680542E0;6.930587769E-2;5.807922363E-2;9.786349182E0;9.786766924E0
8.351659542E0;5.837860107E-2;5.763015747E-2;9.792935486E0;9.793279059E0
8.361639542E0;5.837860107E-2;6.571334839E-2;9.789043579E0;9.789438212E0
8.371618542E0;6.451583862E-2;6.825805664E-2;9.785900116E0;9.786350828E0
8.381597542E0;6.182144165E-2;6.571334839E-2;9.787247314E0;9.787663160E0
8.391576542E0;5.688171387E-2;8.008346558E-2;9.791438599E0;9.791931307E0
8.401555542E0;6.152206421E-2;3.996688843E-2;9.781559143E0;9.781834265E0
8.411535542E0;6.047424316E-2;4.116439819E-2;9.787846069E0;9.788119448E0
8.421514542E0;6.032455444E-2;6.047424316E-2;9.783056030E0;9.783428922E0
8.431493542E0;5.583389282E-2;5.598358154E-2;9.788145447E0;9.788464786E0
8.441472542E0;6.331832886E-2;5.733078003E-2;9.790839844E0;9.791212431E0
8.451451542E0;5.119354248E-2;5.852828979E-2;9.786049805E0;9.786358726E0
8.461431542E0;5.748046875E-2;6.346801758E-2;9.782756653E0;9.783131397E0
8.471410542E0;4.685256958E-2;6.227050781E-2;9.751471710E0;9.751783083E0
8.481389542E0;7.095245361E-2;5.897735596E-2;9.787546692E0;9.787981550E0
8.491368542E0;5.538482666E-2;6.735992432E-2;9.698332214E0;9.698724276E0
8.501347542E0;8.232879639E-2;4.026626587E-2;9.819131012E0;9.819558709E0
8.511327542E0;3.308120728E-2;8.038284302E-2;9.737850037E0;9.738237988E0
8.521306542E0;3.592529297E-2;2.047741699E-1;9.828860779E0;9.831059317E0
8.531285542E0;-7.050338745E-2;1.444496155E-1;9.723180542E0;9.724509050E0
8.541264542E0;3.156935120E-1;-1.230441284E-1;9.808503113E0;9.814353548E0
8.551244542E0;2.396516418E-1;-7.409591675E-2;1.000249969E1;1.000564457E1
8.561223542E0;1.169068909E-1;1.826202393E-2;9.853709106E0;9.854419510E0
8.571202542E0;6.721023560E-2;5.448669434E-2;9.731563110E0;9.731947728E0
8.581181542E0;6.122268677E-2;6.870712280E-2;9.685159607E0;9.685596806E0
8.591160542E0;1.023870850E-1;4.730163574E-2;9.822873230E0;9.823520706E0
8.601140542E0;1.001417542E-1;5.059478760E-2;9.782906342E0;9.783549698E0
8.611119542E0;9.355545044E-2;5.044509888E-2;9.794881439E0;9.795458118E0
8.621099083E0;1.127156067E-1;5.284011841E-2;9.789342957E0;9.790134443E0
8.631078083E0;9.505233765E-2;4.565505981E-2;9.790241089E0;9.790808951E0
8.641057083E0;1.004411316E-1;4.730163574E-2;9.785750427E0;9.786380193E0
8.651037083E0;1.011895752E-1;4.685256958E-2;9.790390778E0;9.791025793E0
8.661016083E0;9.984237671E-2;5.418731689E-2;9.787397003E0;9.788056235E0
8.670995083E0;9.325607300E-2;4.700225830E-2;9.784702606E0;9.785259884E0
8.680974083E0;9.954299927E-2;5.718109131E-2;9.780810699E0;9.781484367E0
8.690954083E0;9.026229858E-2;5.478607178E-2;9.776170349E0;9.776740535E0
8.700933083E0;9.729766846E-2;4.834945679E-2;9.779164124E0;9.779767659E0
8.710912083E0;9.804611206E-2;4.550537109E-2;9.780062256E0;9.780659564E0
8.720891083E0;8.861572266E-2;4.999603271E-2;9.782906342E0;9.783435431E0
8.730870083E0;8.951385498E-2;5.059478760E-2;9.796378326E0;9.796917927E0
8.740850083E0;1.010398865E-1;4.760101318E-2;9.791139221E0;9.791776252E0
8.750829083E0;9.520202637E-2;4.805007935E-2;9.778565369E0;9.779146839E0
8.760808083E0;9.520202637E-2;3.697311401E-2;9.787995758E0;9.788528561E0
8.770787083E0;1.086740112E-1;4.625381470E-2;9.792336731E0;9.793048969E0
8.780766083E0;1.008901978E-1;5.239105225E-2;9.780062256E0;9.780722948E0
8.790746083E0;9.370513916E-2;4.984634399E-2;9.784253540E0;9.784829209E0
8.800725083E0;9.774673462E-2;4.625381470E-2;9.793085175E0;9.793682202E0
8.810704083E0;9.999206543E-2;4.655319214E-2;9.791139221E0;9.791760458E0
8.820683083E0;9.864486694E-2;5.179229736E-2;9.785151672E0;9.785785942E0
8.830662083E0;1.016386414E-1;4.819976807E-2;9.780661011E0;9.781307859E0
8.840642083E0;9.789642334E-2;4.805007935E-2;9.791588287E0;9.792195551E0
8.850621083E0;9.490264893E-2;4.640350342E-2;9.792336731E0;9.792906537E0
8.860600083E0;1.008901978E-1;5.029541016E-2;9.791588287E0;9.792237214E0
8.870579083E0;9.520202637E-2;5.733078003E-2;9.785750427E0;9.786381439E0
8.880559083E0;9.505233765E-2;5.284011841E-2;9.793534241E0;9.794138040E0
8.890538083E0;9.759704590E-2;5.688171387E-2;9.790690155E0;9.791341809E0
8.900517083E0;1.043330383E-1;4.475692749E-2;9.774972839E0;9.775632081E0
8.910496083E0;1.047821045E-1;4.909790039E-2;9.785151672E0;9.785835843E0
8.920475083E0;1.016386414E-1;5.149291992E-2;9.790540466E0;9.791203427E0
8.930455083E0;9.580078125E-2;4.805007935E-2;9.791588287E0;9.792174824E0
8.940434083E0;9.370513916E-2;4.625381470E-2;9.786049805E0;9.786607729E0
8.950413083E0;1.022373962E-1;4.535568237E-2;9.783654785E0;9.784294077E0
8.960392083E0;9.580078125E-2;4.595443726E-2;9.784852295E0;9.785429170E0
8.970372083E0;9.475296021E-2;5.179229736E-2;9.787696381E0;9.788292037E0
8.980351083E0;9.265731812E-2;3.936813354E-2;9.787247314E0;9.787765078E0
8.990330083E0;9.849517822E-2;4.879852295E-2;9.789941711E0;9.790558784E0
9.000309083E0;1.070274353E-1;4.834945679E-2;9.790690155E0;9.791394500E0
9.010288083E0;1.043330383E-1;4.864883423E-2;9.785451050E0;9.786128159E0
9.020268083E0;1.005908203E-1;4.370910645E-2;9.786349182E0;9.786963743E0
9.030247083E0;1.043330383E-1;4.266128540E-2;9.796528015E0;9.797176456E0
9.040226083E0;9.220825195E-2;4.805007935E-2;9.785750427E0;9.786302805E0
9.050205083E0;1.025367737E-1;4.535568237E-2;9.785451050E0;9.786093356E0
9.060184083E0;9.445358276E-2;4.924758911E-2;9.782606964E0;9.783186895E0
9.070164083E0;1.016386414E-1;4.685256958E-2;9.795180817E0;9.795820170E0
9.080143083E0;9.984237671E-2;4.849914551E-2;9.789043579E0;9.789672868E0
9.090122083E0;9.954299927E-2;4.655319214E-2;9.785900116E0;9.786517107E0
9.100101083E0;1.064286804E-1;5.418731689E-2;9.779613190E0;9.780342400E0
9.110081083E0;8.981323242E-2;5.508544922E-2;9.783056030E0;9.783623363E0
9.120060083E0;1.059796143E-1;4.894821167E-2;9.793384552E0;9.794080283E0
9.130039083E0;1.014889526E-1;4.849914551E-2;9.792486420E0;9.793132413E0
9.140018083E0;1.047821045E-1;4.984634399E-2;9.783804474E0;9.784492523E0
9.149997083E0;9.849517822E-2;4.625381470E-2;9.787546692E0;9.788151560E0
9.159977083E0;1.019380188E-1;5.029541016E-2;9.776769104E0;9.777429882E0
9.169956083E0;9.669891357E-2;4.730163574E-2;9.780062256E0;9.780654674E0
9.179935083E0;9.355545044E-2;4.999603271E-2;9.795629883E0;9.796204215E0
9.189914083E0;1.010398865E-1;4.565505981E-2;9.782008209E0;9.782636559E0
9.199893083E0;1.011895752E-1;4.984634399E-2;9.792935486E0;9.793585116E0
9.209873083E0;1.059796143E-1;4.999603271E-2;9.789043579E0;9.789744914E0
9.219852083E0;1.007405090E-1;4.685256958E-2;9.791737976E0;9.792368274E0
9.229831083E0;1.029858398E-1;4.550537109E-2;9.784852295E0;9.785500051E0
9.239810083E0;9.969268799E-2;4.430786133E-2;9.785001984E0;9.785610131E0
9.249789083E0;9.535171509E-2;5.403762817E-2;9.789193268E0;9.789806783E0
9.259769083E0;9.310638428E-2;5.658233643E-2;9.783505096E0;9.784111729E0
9.269748083E0;1.026864624E-1;4.909790039E-2;9.791737976E0;9.792399487E0
9.279727083E0;9.565109253E-2;4.565505981E-2;9.789193268E0;9.789767022E0
9.289706083E0;9.415420532E-2;4.535568237E-2;9.781858521E0;9.782416791E0
9.299686083E0;9.385482788E-2;4.670288086E-2;9.786947937E0;9.787509377E0
9.309665083E0;9.669891357E-2;5.897735596E-2;9.783804474E0;9.784460077E0
9.319644083E0;9.175918579E-2;4.879852295E-2;9.781708832E0;9.782260920E0
9.329623083E0;9.445358276E-2;4.580474854E-2;9.786498871E0;9.787061852E0
9.339602083E0;9.999206543E-2;3.772155762E-2;9.776619415E0;9.777203512E0
9.349582083E0;9.849517822E-2;4.775070190E-2;9.785900116E0;9.786512275E0
9.359561083E0;1.065783691E-1;4.760101318E-2;9.787995758E0;9.788691729E0
9.369540083E0;1.041833496E-1;4.805007935E-2;9.784253540E0;9.784926178E0
9.379519083E0;1.011895752E-1;5.538482666E-2;9.779762878E0;9.780443178E0
9.389499083E0;1.058299255E-1;5.059478760E-2;9.796528015E0;9.797230270E0
9.399478083E0;9.295669556E-2;4.535568237E-2;9.793683929E0;9.794230087E0
9.409457083E0;9.729766846E-2;4.191284180E-2;9.786049805E0;9.786623233E0
9.419436083E0;9.864486694E-2;5.014572144E-2;9.780810699E0;9.781436671E0
9.429415083E0;9.505233765E-2;4.550537109E-2;9.790241089E0;9.790808254E0
9.439395083E0;9.999206543E-2;4.430786133E-2;9.787846069E0;9.788457094E0
9.449374083E0;9.624984741E-2;4.864883423E-2;9.777816925E0;9.778411658E0
9.459353083E0;9.595046997E-2;5.463638306E-2;9.790989532E0;9.791612107E0
9.469332083E0;9.774673462E-2;5.194198608E-2;9.785451050E0;9.786077081E0
9.479311083E0;9.550140381E-2;5.254074097E-2;9.785600739E0;9.786207788E0
9.489291083E0;9.834548950E-2;4.535568237E-2;9.793384552E0;9.793983355E0
9.499270083E0;9.894424438E-2;5.239105225E-2;9.785451050E0;9.786091510E0
9.509249083E0;1.014889526E-1;5.673202515E-2;9.788893890E0;9.789584369E0
9.519228083E0;9.789642334E-2;4.849914551E-2;9.789342957E0;9.789952574E0
9.529208083E0;1.095721436E-1;4.805007935E-2;9.783505096E0;9.784236651E0
9.539187083E0;1.019380188E-1;4.535568237E-2;9.778864746E0;9.779501226E0
9.549166083E0;9.535171509E-2;4.790039063E-2;9.787995758E0;9.788577392E0
9.559145083E0;9.086105347E-2;4.790039063E-2;9.790690155E0;9.791228926E0
9.569124083E0;9.834548950E-2;5.209167480E-2;9.784702606E0;9.785335481E0
9.579104083E0;1.026864624E-1;4.460723877E-2;9.779014435E0;9.779655292E0
9.589083083E0;1.005908203E-1;4.715194702E-2;9.775721283E0;9.776352511E0
9.599062083E0;1.004411316E-1;4.460723877E-2;9.785900116E0;9.786517220E0
9.609041083E0;9.879455566E-2;4.236190796E-2;9.795330505E0;9.795920304E0
9.619019208E0;9.460327148E-2;4.385879517E-2;9.799970856E0;9.800525606E0
9.628999208E0;9.909393311E-2;5.044509888E-2;9.783505096E0;9.784136972E0
9.638978208E0;1.019380188E-1;5.044509888E-2;9.782606964E0;9.783268119E0
9.648957208E0;9.864486694E-2;4.715194702E-2;9.785151672E0;9.785762483E0
9.658936208E0;9.819580078E-2;4.670288086E-2;9.784103851E0;9.784708056E0
9.668915208E0;1.065783691E-1;4.550537109E-2;9.790540466E0;9.791226292E0
9.678895208E0;1.019380188E-1;4.685256958E-2;9.776320038E0;9.776963742E0
9.688874208E0;9.580078125E-2;5.239105225E-2;9.786498871E0;9.787107988E0
9.698853208E0;9.430389404E-2;4.520599365E-2;9.793983307E0;9.794541634E0
9.708832208E0;9.639953613E-2;4.715194702E-2;9.783355408E0;9.783943950E0
9.718812208E0;8.831634521E-2;4.655319214E-2;9.786199493E0;9.786708716E0
9.728791208E0;8.637039185E-2;4.370910645E-2;9.787247314E0;9.787726004E0
9.738770208E0;9.565109253E-2;4.775070190E-2;9.786947937E0;9.787531823E0
9.748749208E0;9.759704590E-2;5.104385376E-2;9.789043579E0;9.789663163E0
9.758728208E0;1.010398865E-1;4.415817261E-2;9.787696381E0;9.788317498E0
9.768708208E0;1.032852173E-1;4.969665527E-2;9.793833618E0;9.794504303E0
9.778687208E0;9.295669556E-2;4.879852295E-2;9.783954163E0;9.784517428E0
9.788666208E0;9.595046997E-2;4.415817261E-2;9.789941711E0;9.790511486E0
9.798645208E0;9.804611206E-2;4.655319214E-2;9.780661011E0;9.781263213E0
9.808625208E0;9.430389404E-2;5.284011841E-2;9.780361633E0;9.780959001E0
9.818604208E0;1.059796143E-1;4.565505981E-2;9.780062256E0;9.780743008E0
9.828583208E0;9.669891357E-2;5.269042969E-2;9.793384552E0;9.794003673E0
9.838562208E0;1.011895752E-1;5.224136353E-2;9.774972839E0;9.775636169E0
9.848541208E0;1.058299255E-1;5.089416504E-2;9.785151672E0;9.785856296E0
9.858521208E0;1.052311707E-1;5.089416504E-2;9.785451050E0;9.786149195E0
9.868500208E0;1.010398865E-1;5.029541016E-2;9.789792023E0;9.790442612E0
9.878479208E0;1.005908203E-1;5.209167480E-2;9.788145447E0;9.788800914E0
9.888458208E0;1.062789917E-1;4.939727783E-2;9.791737976E0;9.792439324E0
9.898437208E0;5.882766724E-2;7.828720093E-2;9.580976257E0;9.581476693E0
9.908417208E0;1.305285645E-1;1.601669312E-2;9.925260315E0;9.926131500E0
9.918396208E0;2.074685669E-1;-7.035369873E-3;1.013781830E1;1.013994342E1
9.928375208E0;9.430389404E-3;1.124162292E-1;9.441466370E0;9.442140306E0
9.938354208E0;1.167572021E-1;4.326004028E-2;9.809550934E0;9.810341136E0
9.948334208E0;1.028361511E-1;4.640350342E-2;9.778864746E0;9.779515544E0
9.958313208E0;1.020877075E-1;5.239105225E-2;9.779463501E0;9.780136660E0
9.968292208E0;1.028361511E-1;5.523513794E-2;9.783505096E0;9.784201458E0
9.978271208E0;1.109193420E-1;4.385879517E-2;9.787247314E0;9.787974085E0
9.988250208E0;1.044827271E-1;4.400848389E-2;9.788744202E0;9.789400719E0
9.998230208E0;1.038839722E-1;4.834945679E-2;9.789342957E0;9.790013538E0
1.000820921E1;1.052311707E-1;5.134323120E-2;9.792336731E0;9.793036729E0
1.001818821E1;9.924362183E-2;4.939727783E-2;9.790390778E0;9.791018382E0
1.002816721E1;9.789642334E-2;4.805007935E-2;9.781559143E0;9.782167029E0
1.003814621E1;1.037342834E-1;5.149291992E-2;9.781858521E0;9.782544068E0
1.004812621E1;1.023870850E-1;5.224136353E-2;9.785451050E0;9.786126124E0
1.005810521E1;9.145980835E-2;4.984634399E-2;9.780810699E0;9.781365318E0
1.006808421E1;9.864486694E-2;4.999603271E-2;9.789792023E0;9.790416654E0
1.007806321E1;9.565109253E-2;5.718109131E-2;9.779164124E0;9.779799066E0
1.008804221E1;1.064286804E-1;5.463638306E-2;9.776469727E0;9.777201671E0
1.009802221E1;1.038839722E-1;4.834945679E-2;9.791139221E0;9.791809679E0
1.010800121E1;1.004411316E-1;4.490661621E-2;9.780960388E0;9.781579174E0
1.011798021E1;1.134640503E-1;5.089416504E-2;9.784852295E0;9.785642480E0
1.012795921E1;9.864486694E-2;5.194198608E-2;9.783954163E0;9.784589303E0
1.013793921E1;1.032852173E-1;4.355941772E-2;9.782606964E0;9.783249167E0
1.014791821E1;1.100212097E-1;4.116439819E-2;9.786049805E0;9.786754822E0
1.015789721E1;9.595046997E-2;4.775070190E-2;9.780960388E0;9.781547564E0
1.016787621E1;1.038839722E-1;5.358856201E-2;9.792336731E0;9.793034375E0
1.017785521E1;9.445358276E-2;5.089416504E-2;9.790540466E0;9.791128348E0
1.018783521E1;9.999206543E-2;4.700225830E-2;9.791588287E0;9.792211641E0
1.019781421E1;8.936416626E-2;4.700225830E-2;9.785900116E0;9.786421013E0
1.020779321E1;8.876541138E-2;4.715194702E-2;9.785451050E0;9.785967242E0
1.021777221E1;1.016386414E-1;4.655319214E-2;9.788295135E0;9.788933510E0
1.022775221E1;1.037342834E-1;5.104385376E-2;9.786049805E0;9.786732706E0
1.023773121E1;9.864486694E-2;5.388793945E-2;9.793833618E0;9.794478631E0
1.024771021E1;9.699829102E-2;5.194198608E-2;9.785001984E0;9.785620596E0
1.025768921E1;9.265731812E-2;5.373825073E-2;9.790690155E0;9.791276060E0
1.026766821E1;1.079255676E-1;5.029541016E-2;9.793534241E0;9.794258036E0
1.027764821E1;1.107696533E-1;4.101470947E-2;9.790690155E0;9.791402649E0
1.028762721E1;1.050814819E-1;4.595443726E-2;9.789193268E0;9.789865104E0
1.029760621E1;9.460327148E-2;4.819976807E-2;9.786498871E0;9.787074800E0
1.030758521E1;1.037342834E-1;4.954696655E-2;9.783654785E0;9.784330159E0
1.031756421E1;1.005908203E-1;5.508544922E-2;9.784702606E0;9.785374700E0
1.032754421E1;1.029858398E-1;4.385879517E-2;9.779014435E0;9.779655055E0
1.033752321E1;1.010398865E-1;5.493576050E-2;9.779463501E0;9.780139742E0
1.034750221E1;9.999206543E-2;5.388793945E-2;9.792037354E0;9.792696148E0
1.035748121E1;9.849517822E-2;4.700225830E-2;9.769134979E0;9.769744559E0
1.036746121E1;1.061293030E-1;4.954696655E-2;9.783954163E0;9.784655200E0
1.037744021E1;1.041833496E-1;4.954696655E-2;9.794731750E0;9.795411126E0
1.038741921E1;9.909393311E-2;4.520599365E-2;9.791737976E0;9.792343733E0
1.039739821E1;1.008901978E-1;4.326004028E-2;9.782008209E0;9.782624130E0
1.040737721E1;9.190887451E-2;5.119354248E-2;9.789193268E0;9.789758570E0
1.041735721E1;1.028361511E-1;5.119354248E-2;9.787696381E0;9.788370472E0
1.042733621E1;9.669891357E-2;5.388793945E-2;9.789792023E0;9.790417889E0
1.043731521E1;1.011895752E-1;5.403762817E-2;9.784403229E0;9.785075674E0
1.044729421E1;9.565109253E-2;5.463638306E-2;9.783056030E0;9.783676178E0
1.045727321E1;9.819580078E-2;5.104385376E-2;9.793534241E0;9.794159526E0
1.046725321E1;1.016386414E-1;5.224136353E-2;9.789193268E0;9.789860285E0
1.047723221E1;9.804611206E-2;4.790039063E-2;9.783654785E0;9.784263306E0
1.048721121E1;1.026864624E-1;5.239105225E-2;9.791737976E0;9.792416552E0
1.049719021E1;9.610015869E-2;5.089416504E-2;9.781110077E0;9.781714563E0
1.050717021E1;9.744735718E-2;5.059478760E-2;9.785750427E0;9.786366396E0
1.051714921E1;8.966354370E-2;4.236190796E-2;9.787696381E0;9.788198737E0
1.052712821E1;9.415420532E-2;4.281097412E-2;9.790839844E0;9.791386145E0
1.053710721E1;9.909393311E-2;4.355941772E-2;9.781559143E0;9.782158059E0
1.054708621E1;9.175918579E-2;4.041595459E-2;9.783654785E0;9.784168547E0
1.055706621E1;1.035845947E-1;5.194198608E-2;9.788594513E0;9.789280376E0
1.056704521E1;1.077758789E-1;5.074447632E-2;9.791139221E0;9.791863862E0
1.057702421E1;9.505233765E-2;4.775070190E-2;9.786648560E0;9.787226630E0
1.058700321E1;1.007405090E-1;5.284011841E-2;9.782756653E0;9.783418035E0
1.059698221E1;1.091230774E-1;5.224136353E-2;9.781110077E0;9.781858277E0
1.060696221E1;8.307723999E-2;5.613327026E-2;9.781259766E0;9.781773631E0
1.061694142E1;1.097218323E-1;5.269042969E-2;9.756710815E0;9.757470015E0
1.062692042E1;3.622467041E-2;7.993377686E-2;9.547595673E0;9.547998993E0
1.063689942E1;1.445993042E-1;1.721420288E-2;9.951306152E0;9.952371548E0
1.064687942E1;1.434017944E-1;2.395019531E-2;9.880952454E0;9.882022014E0
1.065685842E1;9.804611206E-2;4.296066284E-2;9.728419647E0;9.729008556E0
1.066683742E1;1.469943237E-1;3.143463135E-2;9.819430389E0;9.820580871E0
1.067681642E1;1.445993042E-1;2.335144043E-2;9.827214203E0;9.828305716E0
1.068679542E1;1.266366577E-1;3.308120728E-2;9.812844086E0;9.813716944E0
1.069677542E1;1.486408997E-1;2.424957275E-2;9.848919067E0;9.850070505E0
1.070675442E1;1.661544800E-1;1.751358032E-2;9.949659576E0;9.951062241E0
1.071673342E1;1.826202393E-2;9.565109253E-2;9.454938354E0;9.455439806E0