"Time (s)";"Acceleration x (m/s^2)";"Acceleration y (m/s^2)";"Acceleration z (m/s^2)";"Absolute acceleration (m/s^2)"
1.687708334E-3;3.273692322E-1;-5.583389282E-2;9.787546692E0;9.793179171E0
1.166670833E-2;3.423381042E-1;-2.050735474E-1;9.781409454E0;9.789546540E0
2.164570833E-2;2.880010986E-1;-2.119592285E-1;9.784702606E0;9.791234674E0
3.162470833E-2;2.962339783E-1;-1.606159973E-1;9.777068481E0;9.782873819E0
4.160370833E-2;2.800675964E-1;-1.733395386E-1;9.774074707E0;9.779622735E0
5.158270833E-2;3.622467041E-1;-2.185455322E-2;9.773475952E0;9.780211270E0
6.156170833E-2;3.676354980E-1;-7.768844604E-2;9.776769104E0;9.783987197E0
7.154070833E-2;4.785548401E-1;1.194515991E-1;9.763147430E0;9.775598763E0
8.152070833E-2;4.947212219E-1;1.598675537E-1;9.768236847E0;9.782063066E0
9.149970833E-2;4.188290405E-1;-9.145980835E-2;9.820328522E0;9.829681324E0
1.014787083E-1;5.037025452E-1;-1.109193420E-1;9.777966614E0;9.791560164E0
1.114577083E-1;7.963439941E-1;-3.644920349E-1;9.815688171E0;9.854681754E0
1.214367083E-1;4.267625427E-1;2.251318359E-1;9.769434357E0;9.781342355E0
1.314157083E-1;-1.163081360E-1;2.644999695E-1;9.757159882E0;9.761437229E0
1.413947083E-1;7.813751221E-2;-1.026864624E-1;9.789492645E0;9.790343009E0
1.513737083E-1;3.595523071E-1;-8.352630615E-2;9.803563385E0;9.810510157E0
1.613527083E-1;2.145039368E-1;-2.019300842E-1;9.779313812E0;9.783750116E0
1.713327083E-1;3.308120728E-2;-2.878514099E-1;9.796228638E0;9.800512656E0
1.813117083E-1;6.848258972E-1;1.886077881E-2;9.710157623E0;9.734295214E0
1.912907083E-1;6.872209167E-1;2.700384521E-1;9.792636108E0;9.820433560E0
2.012697083E-1;2.838098145E-1;-1.577719116E-1;9.794432373E0;9.799813544E0
2.112487083E-1;4.519102478E-1;-1.074765015E-1;9.765243073E0;9.776284894E0
2.212277083E-1;4.906796265E-1;-1.378633118E-1;9.740394745E0;9.753720448E0
2.312067083E-1;4.472698975E-1;-1.416055298E-1;9.818681946E0;9.829883908E0
2.411857083E-1;4.742138672E-1;-1.830693054E-1;9.757758636E0;9.770990061E0
2.511647083E-1;3.128494263E-1;-8.128097534E-2;9.726623383E0;9.731992796E0
2.611447083E-1;1.932481384E-1;1.377136230E-1;9.773925018E0;9.776805212E0
2.711237083E-1;2.441423035E-1;1.751358032E-2;9.861043854E0;9.864081208E0
2.811027083E-1;4.189787292E-1;-1.210981750E-1;9.709409180E0;9.719199276E0
2.910817083E-1;3.727249146E-1;-2.065704346E-1;9.869426422E0;9.878622025E0
3.010607083E-1;2.603086853E-1;-1.797761536E-1;9.787397003E0;9.792508370E0
3.110397083E-1;3.149450684E-1;-9.086105347E-2;9.770033112E0;9.775530325E0
3.210187083E-1;2.957849121E-1;1.676513672E-1;9.780062256E0;9.785970234E0
3.309975833E-1;3.367996216E-1;1.724414062E-1;9.780062256E0;9.787379003E0
3.409775833E-1;3.356021118E-1;-8.681945801E-2;9.789043579E0;9.795179457E0
3.509565833E-1;3.285667419E-1;-5.254074097E-2;9.781409454E0;9.787067362E0
3.609355833E-1;3.594026184E-1;-5.523513794E-2;9.778415680E0;9.785174213E0
3.709145833E-1;3.243754578E-1;-6.496490479E-2;9.792336731E0;9.797923174E0
3.808935833E-1;3.088078308E-1;-6.556365967E-2;9.787696381E0;9.792786187E0
3.908725833E-1;3.385958862E-1;-5.388793945E-2;9.779762878E0;9.785770948E0
4.008515833E-1;3.412902832E-1;-5.807922363E-2;9.782906342E0;9.789030020E0
4.108305833E-1;3.366499329E-1;-6.227050781E-2;9.782906342E0;9.788895100E0
4.208095833E-1;3.299139404E-1;-5.463638306E-2;9.785750427E0;9.791462596E0
4.307895833E-1;3.236270142E-1;-5.508544922E-2;9.789642334E0;9.795145016E0
4.407685833E-1;3.245251465E-1;-5.822891235E-2;9.783505096E0;9.789059155E0
4.507475833E-1;3.327580261E-1;-6.047424316E-2;9.770781555E0;9.776633226E0
4.607265833E-1;3.245251465E-1;-4.715194702E-2;9.774074707E0;9.779574441E0
4.707055833E-1;3.050656128E-1;-4.939727783E-2;9.779762878E0;9.784644453E0
4.806845833E-1;3.147953796E-1;-4.730163574E-2;9.779164124E0;9.784343848E0
4.906635833E-1;3.050656128E-1;-5.044509888E-2;9.787995758E0;9.792878570E0
5.006425833E-1;3.022215271E-1;-5.179229736E-2;9.781708832E0;9.786513575E0
5.106215833E-1;3.040177917E-1;-4.834945679E-2;9.785750427E0;9.790591193E0
5.206015833E-1;2.944377136E-1;-4.730163574E-2;9.788744202E0;9.793285662E0
5.305805833E-1;2.908451843E-1;-4.745132446E-2;9.792037354E0;9.796470695E0
5.405595833E-1;2.844085693E-1;-4.385879517E-2;9.787397003E0;9.791626623E0
5.505385833E-1;2.885998535E-1;-4.385879517E-2;9.780661011E0;9.785016263E0
5.605175833E-1;2.842588806E-1;-4.715194702E-2;9.779164124E0;9.783408270E0
5.704965833E-1;2.755769348E-1;-4.565505981E-2;9.787247314E0;9.791232661E0
5.804755833E-1;2.869532776E-1;-4.535568237E-2;9.782756653E0;9.787069380E0
5.904545833E-1;3.008743286E-1;-3.323089600E-2;9.780960388E0;9.785643350E0
6.004335833E-1;2.894979858E-1;-4.445755005E-2;9.786199493E0;9.790581499E0
6.104135833E-1;3.272195435E-1;-5.194198608E-2;9.779912567E0;9.785523002E0
6.203925833E-1;3.704795837E-1;-6.436614990E-2;9.782606964E0;9.789831313E0
6.303715833E-1;5.252577209E-1;-1.181044006E-1;9.780661011E0;9.795467019E0
6.403505833E-1;5.852828979E-1;-1.576222229E-1;9.776170349E0;9.794942957E0
6.503295833E-1;5.318440247E-1;-2.607577515E-1;9.752669220E0;9.770640183E0
6.603085833E-1;9.595046997E-1;-3.739224243E-1;9.782307587E0;9.836361572E0
6.702875833E-1;1.120270386E0;-1.329235840E-1;9.766739960E0;9.831677571E0
6.802665833E-1;1.784289551E0;-1.351689148E-1;9.719887390E0;9.883226736E0
6.902465833E-1;1.682650909E0;4.161346436E-2;9.771230621E0;9.915139617E0
7.002255833E-1;2.379152527E0;-1.856140137E-2;9.722282410E0;1.000917012E1
7.102045833E-1;2.604434052E0;-5.239105225E-2;9.737700348E0;1.008011060E1
7.201835833E-1;2.616558838E0;-1.249900818E-1;9.728569336E0;1.007507141E1
7.301625833E-1;1.594933319E0;-9.624984741E-2;9.758207703E0;9.888159277E0
7.401415833E-1;1.474583588E0;-7.214996338E-2;9.727371826E0;9.838768471E0
7.501205833E-1;-1.495390320E-1;7.888595581E-2;9.820178833E0;9.821634142E0
7.600995833E-1;-2.101330261E0;-1.022373962E-1;9.857601013E0;1.007960015E1
7.700785833E-1;-2.903961182E-1;-5.234614563E-1;9.764045563E0;9.782378420E0
7.800585833E-1;1.870360565E0;-7.518864441E-1;9.754465485E0;9.960581246E0
7.900375833E-1;2.850222931E0;-5.397775269E-1;9.752968597E0;1.017524088E1
8.000165833E-1;2.276466064E0;-3.143463135E-2;9.711205444E0;9.974507359E0
8.099955833E-1;1.735041962E0;-1.721420288E-2;9.769584045E0;9.922471434E0
8.199745833E-1;1.659299469E0;-2.424957275E-1;9.773026886E0;9.915852632E0
8.299535833E-1;2.539469147E0;-1.672023010E-1;9.685758362E0;1.001452821E1
8.399325833E-1;4.030069427E0;-3.218307495E-1;9.677076416E0;1.048765191E1
8.499115833E-1;5.402714996E0;-5.854325867E-1;9.639055481E0;1.106541690E1
8.598915833E-1;4.989723816E0;-3.068618774E-1;9.649084625E0;1.086721409E1
8.698705833E-1;3.488495636E0;-3.847000122E-2;9.683812408E0;1.029307070E1
8.798495833E-1;3.721560974E0;-1.420545959E-1;9.698182526E0;1.038869289E1
8.898285833E-1;4.730762329E0;-3.016227722E-1;9.632169800E0;1.073544520E1
8.998075833E-1;4.445605316E0;-6.159690857E-1;9.759704590E0;1.074219057E1
9.097865833E-1;5.076692963E0;-2.546205139E-1;9.657167816E0;1.091322745E1
9.197655833E-1;5.407205658E0;-5.508544922E-2;9.671837311E0;1.108085486E1
9.297445833E-1;3.635489960E0;1.380130005E-1;9.697733459E0;1.035769613E1
9.397235833E-1;3.578009491E0;7.559280396E-2;9.697583771E0;1.033687560E1
9.497035833E-1;4.144281921E0;-1.242416382E-1;9.688901825E0;1.053875359E1
9.596825833E-1;2.088007965E0;-9.999206543E-2;9.746232605E0;9.967889730E0
9.696615833E-1;5.926176453E-1;1.953437805E-1;9.755363617E0;9.775299185E0
9.796405833E-1;1.435963898E0;4.839436340E-1;9.746232605E0;9.863328229E0
9.896195833E-1;3.625460815E0;-3.373983765E-1;9.729168091E0;1.038819116E1
9.995985833E-1;3.971241760E0;-5.257067871E-1;9.732760620E0;1.052491131E1
1.009577583E0;2.566562805E0;3.147953796E-1;9.786498871E0;1.012234661E1
1.019556583E0;1.947899323E0;4.822970581E-1;9.714199219E0;9.919303841E0
1.029536583E0;2.503094788E0;7.280859375E-1;9.693691864E0;1.003809019E1
1.039515583E0;3.121608582E0;5.222639465E-1;9.667346649E0;1.017225594E1
1.049494583E0;3.374133453E0;-4.251159668E-2;9.859247589E0;1.042071719E1
1.059473583E0;4.174818420E0;-4.632865906E-1;9.731413422E0;1.059925236E1
1.069452583E0;3.524570618E0;-1.942959595E-1;9.718091125E0;1.033932513E1
1.079431583E0;1.824855194E0;-7.409591675E-2;9.702074432E0;9.872478664E0
1.089410583E0;2.000290375E0;8.322692871E-2;9.795480194E0;9.997975822E0
1.099389583E0;2.482138367E0;-1.264869690E-1;9.769883423E0;1.008105312E1
1.109369583E0;1.978585510E0;2.903961182E-2;9.697284393E0;9.897119203E0
1.119348583E0;5.851332092E-1;1.764830017E-1;9.812245331E0;9.831260629E0
1.129327583E0;-2.133064270E-1;3.640429688E-1;9.783505096E0;9.792599190E0
1.139306583E0;4.974156189E-1;-2.574645996E-2;9.822573853E0;9.835194064E0
1.149285583E0;6.786886597E-1;-3.083587646E-1;9.775421906E0;9.803804203E0
1.159264583E0;-3.183879089E-1;2.095642090E-2;9.852361908E0;9.857527337E0
1.169243583E0;4.923262024E-1;-6.721023560E-2;9.714049530E0;9.726749744E0
1.179222583E0;2.548899536E0;-3.814068604E-1;9.783355408E0;1.011713413E1
1.189201583E0;7.758366394E-1;-4.343966675E-1;9.710307312E0;9.750932830E0
1.199181583E0;-1.616937561E0;3.065625000E-1;9.857601013E0;9.994036491E0
1.209160583E0;-1.700463867E0;3.864962769E-1;9.814041595E0;9.967766509E0
1.219139583E0;-5.918692017E-1;-3.622467041E-2;9.783804474E0;9.801757565E0
1.229118583E0;1.116677856E-1;-2.790197754E-1;9.779313812E0;9.783930722E0
1.239097583E0;-5.680686951E-1;-3.332070923E-1;9.812844086E0;9.834919321E0
1.249076583E0;-2.674039307E0;-1.323248291E-1;9.818083191E0;1.017657868E1
1.259055583E0;-3.145858154E0;1.269360352E-1;9.892927551E0;1.038183759E1
1.269034583E0;-1.533411255E0;6.735992432E-3;9.806407471E0;9.925574186E0
1.279014583E0;-1.028361511E-1;-1.356179810E-1;9.797575836E0;9.799054025E0
1.288993583E0;-3.962260437E-1;2.131567383E-1;9.701325989E0;9.711753540E0
1.298972583E0;-2.245330811E0;6.791377258E-1;9.937385101E0;1.021050249E1
1.308951583E0;-1.651964722E0;4.535568237E-1;9.796827393E0;9.945477776E0
1.318930583E0;-1.343007202E0;2.561174011E-1;9.756261749E0;9.851594175E0
1.328909458E0;-6.565347290E-1;-6.301895142E-2;9.824669495E0;9.846783227E0
1.338888458E0;1.133293304E0;-4.785548401E-1;9.803114319E0;9.880000951E0
1.348867458E0;1.061742096E0;-5.125341797E-1;9.651629333E0;9.723370627E0
1.358846458E0;-1.758243713E0;-2.368075562E-1;9.877210236E0;1.003527682E1
1.368826458E0;-2.431842957E0;1.231938171E-1;9.840087433E0;1.013688106E1
1.378805458E0;-1.732946320E0;-6.586303711E-2;9.883347473E0;1.003434094E1
1.388784458E0;-1.429676971E0;-1.245410156E-1;9.828112335E0;9.932335011E0
1.398763458E0;-1.845212860E0;9.131011963E-2;9.719737701E0;9.893758084E0
1.408742458E0;-2.545007629E0;-4.475692749E-2;9.935588837E0;1.025646101E1
1.418721458E0;-1.516945496E0;1.420545959E-1;9.822274475E0;9.939737371E0
1.428700458E0;5.737568665E-1;-2.065704346E-2;9.755662994E0;9.772542357E0
1.438679458E0;1.010698242E0;-4.342469788E-1;9.777068481E0;9.838757516E0
1.448659458E0;-9.490264893E-2;-3.008743286E-2;9.774374084E0;9.774881100E0
1.458638458E0;-1.342258759E0;8.981323242E-3;9.767039337E0;9.858843576E0
1.468617458E0;-9.865983582E-1;-1.727407837E-1;9.811496887E0;9.862488878E0
1.478596458E0;-8.014334106E-1;-2.380050659E-2;9.817783813E0;9.850469074E0
1.488575458E0;-1.285826111E0;2.579136658E-1;9.820627899E0;9.907805033E0
1.498554458E0;-6.110293579E-1;2.516267395E-1;9.804162140E0;9.826406676E0
1.508533458E0;5.984555054E-1;4.326004028E-2;9.782457275E0;9.800841330E0
1.518512458E0;-8.202941895E-2;-5.239105225E-3;9.809401245E0;9.809745617E0
1.528491458E0;-1.972298584E0;1.905537415E-1;9.766739960E0;9.965715322E0
1.538471458E0;-2.022743683E0;-6.735992432E-2;9.858050079E0;1.006365643E1
1.548450458E0;-1.614542542E0;-3.754193115E-1;9.817933502E0;9.956882320E0
1.558429458E0;-3.430865479E0;-3.746708679E-1;9.871372375E0;1.045730409E1
1.568408458E0;-4.931494904E0;-1.742376709E-1;9.955796814E0;1.111161064E1
1.578387458E0;-4.431983643E0;-5.242098999E-1;9.840686188E0;1.080538660E1
1.588366458E0;-4.411625977E0;-7.458988953E-1;9.937235413E0;1.089804829E1
1.598345458E0;-6.534361725E0;-4.787045288E-1;9.927805023E0;1.189488772E1
1.608324458E0;-8.029003601E0;-4.483177185E-1;9.926308136E0;1.277487694E1
1.618304458E0;-5.625302124E0;-6.936575317E-1;9.915680237E0;1.142129149E1
1.628283458E0;-3.715723114E0;-5.825885010E-1;9.906998291E0;1.059691572E1
1.638262458E0;-5.147944794E0;-5.141807556E-1;9.865684204E0;1.113990315E1
1.648241458E0;-5.125491486E0;-3.592529297E-1;9.921667786E0;1.117314715E1
1.658220458E0;-2.487078094E0;-4.490661621E-1;9.836345215E0;1.015583109E1
1.668199458E0;-1.073118439E0;-6.527925110E-1;9.851912842E0;9.931661890E0
1.678178458E0;-1.295106812E0;-3.608995056E-1;9.840087433E0;9.931508989E0
1.688157458E0;-1.557062073E0;-2.671943665E-1;9.799671478E0;9.926197470E0
1.698137458E0;-7.943980408E-1;-2.909948730E-1;9.813891907E0;9.850290383E0
1.708116458E0;5.319937134E-1;-1.417552185E-1;9.768985291E0;9.784486980E0
1.718095458E0;1.495839386E0;-7.170089722E-2;9.746082916E0;9.860466961E0
1.728074458E0;7.845185852E-1;3.263214111E-2;9.764644318E0;9.796163173E0
1.738053458E0;1.062640228E0;1.237925720E-1;9.777517548E0;9.835872013E0
1.748032458E0;1.982028351E0;1.047821045E-2;9.761800232E0;9.960988402E0
1.758011458E0;2.406994629E0;-2.125579834E-2;9.712702332E0;1.000653094E1
1.767990458E0;1.737287292E0;-2.799179077E-2;9.753866730E0;9.907414741E0
1.777969458E0;1.319506073E0;5.014572144E-2;9.757159882E0;9.846104805E0
1.787949458E0;1.548380127E0;-1.389111328E-1;9.749675446E0;9.872838934E0
1.797928458E0;2.189347229E0;-2.701881409E-1;9.760902100E0;1.000707014E1
1.807907458E0;1.157842255E0;-3.450325012E-1;9.750573578E0;9.825137720E0
1.817886458E0;-3.082090759E-1;-1.669029236E-1;9.801318054E0;9.807583037E0
1.827865458E0;-8.175997925E-1;-8.083190918E-2;9.776469727E0;9.810930819E0
1.837844458E0;-1.903591461E0;6.436614990E-2;9.842781830E0;1.002537568E1
1.847823458E0;-2.523302765E0;2.423460388E-1;9.880503387E0;1.020049683E1
1.857802458E0;-2.825374603E0;2.680924988E-1;9.835447083E0;1.023672968E1
1.867782458E0;-3.704047394E0;2.387535095E-1;9.902507629E0;1.057528381E1
1.877761458E0;-3.003653870E0;9.774673462E-2;9.856553192E0;1.030451997E1
1.887740458E0;3.167413330E-1;-6.840774536E-2;9.781708832E0;9.787074760E0
1.897719458E0;3.670367432E-1;-4.490661621E-3;9.792785797E0;9.799662739E0
1.907698458E0;2.749781799E-1;-2.424957275E-2;9.785301361E0;9.789194235E0
1.917677458E0;3.070115662E-1;-1.901046753E-2;9.786349182E0;9.791182146E0
1.927656458E0;2.912942505E-1;-1.496887207E-2;9.775870972E0;9.780221350E0
1.937635458E0;2.911445618E-1;-2.260299683E-2;9.785600739E0;9.789956990E0
1.947614458E0;2.868035889E-1;-2.380050659E-2;9.779014435E0;9.783248238E0
1.957594458E0;2.818638611E-1;-1.960922241E-2;9.791887665E0;9.795963240E0
1.967573458E0;2.791694641E-1;-1.451980591E-2;9.789492645E0;9.793483173E0
1.977552458E0;2.945874023E-1;-1.392105103E-2;9.773475952E0;9.777924510E0
1.987531458E0;3.055146790E-1;-1.586700439E-2;9.777667236E0;9.782452022E0
1.997510458E0;3.124003601E-1;-2.948867798E-2;9.791139221E0;9.796166128E0
2.007489458E0;3.106040955E-1;-2.275268555E-2;9.785900116E0;9.790854593E0
2.017468458E0;2.942880249E-1;-2.350112915E-2;9.786498871E0;9.790950817E0
2.027447458E0;2.800675964E-1;-2.035766602E-2;9.787247314E0;9.791274804E0
2.037426458E0;2.890489197E-1;-1.032852173E-2;9.785151672E0;9.789425377E0
2.047406458E0;2.939886475E-1;-1.586700439E-2;9.796977081E0;9.801399952E0
2.057385458E0;2.859054565E-1;-2.080673218E-2;9.783056030E0;9.787254985E0
2.067364458E0;2.966830444E-1;-2.005828857E-2;9.785151672E0;9.789668861E0
2.077343458E0;3.019221497E-1;-1.706451416E-2;9.776320038E0;9.780995944E0
2.087322458E0;2.998265076E-1;-1.616638184E-2;9.786498871E0;9.791103995E0
2.097301458E0;2.909948730E-1;-1.167572021E-2;9.786049805E0;9.790382276E0
2.107280458E0;2.522254944E-1;-7.035369873E-3;9.781409454E0;9.784663413E0
2.117259458E0;-3.439846802E-1;1.408570862E-1;9.779613190E0;9.786674630E0
2.127239458E0;2.243833923E-1;-4.550537109E-2;9.788295135E0;9.790972388E0
2.137218458E0;6.938072205E-1;-1.603166199E-1;9.785750427E0;9.811624804E0
2.147197458E0;1.812730408E-1;-3.936813354E-2;9.791737976E0;9.793494900E0
2.157176458E0;-2.396516418E-1;-7.110214233E-2;9.786648560E0;9.789840573E0
2.167155458E0;-3.610491943E-1;-1.056802368E-1;9.804162140E0;9.811377075E0
2.177134458E0;6.316864014E-2;-2.541714478E-1;9.794582062E0;9.798083035E0
2.187113458E0;3.299139404E-1;-2.972817993E-1;9.800569611E0;9.810626095E0
2.197092458E0;-3.981719971E-1;-4.956193542E-1;9.798923035E0;9.819525046E0
2.207071458E0;-1.603764954E0;-7.444020081E-1;9.860295410E0;1.001756567E1
2.217051458E0;-2.452500000E0;-2.529739380E-2;9.814790039E0;1.011659526E1
2.227030458E0;-2.318678284E0;4.987628174E-1;9.847122803E0;1.012871467E1
2.237009458E0;-3.344046021E0;-2.896476746E-1;9.837692413E0;1.039455298E1
2.246988458E0;-5.088218994E0;-2.390528870E-1;9.922715607E0;1.115380670E1
2.256967458E0;-6.402785339E0;-4.462220764E-1;9.881401520E0;1.178290585E1
2.266946458E0;-4.061204681E0;-6.999444580E-1;9.912087708E0;1.073465362E1
2.276925458E0;-2.715802460E0;-9.758207703E-1;9.851463776E0;1.026543461E1
2.286904458E0;-2.717748413E0;-8.541238403E-1;9.878407745E0;1.028098359E1
2.296884458E0;-3.900139618E0;-6.773414612E-1;9.828112335E0;1.059536090E1
2.306863458E0;-4.549788666E0;-9.216334534E-1;9.935588837E0;1.096658154E1
2.316842458E0;-5.849835205E0;-6.673123169E-1;9.907597046E0;1.152503175E1
2.326821458E0;-5.556145935E0;-6.655160522E-1;9.879006500E0;1.135378521E1
2.336800625E0;-4.617447968E0;-7.692503357E-1;9.837243347E0;1.089421537E1
2.346779625E0;-5.336851959E0;-3.688330078E-1;9.946965179E0;1.129425265E1
2.356758625E0;-5.866151276E0;-2.287243652E-1;9.920769653E0;1.152760670E1
2.366737625E0;-6.853498077E0;-6.945556641E-2;9.949210510E0;1.208147548E1
2.376716625E0;-4.900060272E0;-1.972897339E-1;9.894274750E0;1.104292474E1
2.386696625E0;-3.542982330E0;-1.601669312E-2;9.896969147E0;1.051203970E1
2.396675625E0;-5.574258270E0;2.395019531E-1;9.813592529E0;1.128876941E1
2.406654625E0;-5.313949585E0;5.189707947E-1;9.952653351E0;1.129436583E1
2.416633625E0;-3.846850433E0;2.974314880E-1;9.843380585E0;1.057255244E1
2.426612625E0;-4.185596008E0;4.225712585E-1;9.870324554E0;1.072944953E1
2.436591625E0;-4.843777313E0;4.905299377E-1;9.884095917E0;1.101808288E1
2.446570625E0;-3.570375366E0;3.342549133E-1;9.760003967E0;1.039793172E1
2.456549625E0;-3.450923767E0;4.495152283E-1;9.876611481E0;1.047179035E1
2.466529625E0;-1.361568604E0;4.447251892E-1;9.759854279E0;9.864400899E0
2.476508625E0;-7.110214233E-1;3.966751099E-1;9.920769653E0;9.954123423E0
2.486487625E0;-7.979905701E-1;2.263293457E-1;9.695188751E0;9.730606294E0
2.496466625E0;-2.066003723E0;3.833528137E-1;9.905052338E0;1.012548234E1
2.506445625E0;-1.161734161E0;5.643264771E-1;9.842931519E0;9.927305350E0
2.516424625E0;-1.914518738E-1;2.829116821E-1;9.725425873E0;9.731423393E0
2.526403625E0;-5.968089294E-1;3.600013733E-1;9.762398987E0;9.787247614E0
2.536382625E0;-2.455793152E0;6.569837952E-1;9.815388794E0;1.013925071E1
2.546361625E0;-3.364253998E0;8.096662903E-1;9.828411713E0;1.041976205E1
2.556341625E0;-2.067949677E0;7.521858215E-1;9.839338989E0;1.008240007E1
2.566320625E0;-6.982978821E-1;7.677534485E-1;9.738299103E0;9.793443455E0
2.576299625E0;-1.182989960E0;5.050497437E-1;9.759854279E0;9.844251928E0
2.586278625E0;-2.069895630E0;3.854484558E-1;9.820328522E0;1.004349992E1
2.596257625E0;-1.459914093E0;2.877017212E-1;9.873767395E0;9.985259336E0
2.606236625E0;-2.249821472E-1;8.472381592E-2;9.829160156E0;9.832099698E0
2.616215625E0;1.049916687E0;-2.787203979E-1;9.714498596E0;9.775044403E0
2.626194625E0;2.138902130E0;-4.758604431E-1;9.607171783E0;9.853887312E0
2.636174625E0;1.243464203E0;-6.183641052E-1;9.767338715E0;9.865570584E0
2.646153625E0;-6.364764404E-1;-6.186634827E-1;9.890981598E0;9.930728258E0
2.656132625E0;-1.912423096E0;-8.235873413E-1;9.762698364E0;9.982281180E0
2.666111625E0;-1.817071381E0;-6.804849243E-1;9.834249573E0;1.002383523E1
2.676090625E0;-1.452729034E0;-1.103355560E0;9.785750427E0;9.954332050E0
2.686069625E0;1.458117828E0;-1.460213470E0;9.714797974E0;9.931547243E0
2.696048625E0;1.901196442E0;-1.179846497E0;9.791288910E0;1.004370072E1
2.706027625E0;2.654430084E0;-1.214424591E0;9.690698090E0;1.012079323E1
2.716006625E0;3.352877655E0;-1.284927979E0;9.808353424E0;1.044493300E1
2.725986625E0;2.572101288E0;-1.154698792E0;9.776170349E0;1.017460275E1
2.735965625E0;1.973496094E0;-9.445358276E-1;9.783505096E0;1.002515869E1
2.745944625E0;3.036136322E0;-1.222507782E0;9.793983307E0;1.032641071E1
2.755923625E0;3.980971527E0;-1.372346191E0;9.669442291E0;1.054654363E1
2.765902625E0;6.431675262E0;-1.246457977E0;9.785001984E0;1.177566847E1
2.775881625E0;6.606960754E0;-8.372090149E-1;9.669292603E0;1.174087172E1
2.785860625E0;4.236041107E0;-5.798941040E-1;9.817484436E0;1.070809610E1
2.795839625E0;3.722309418E0;-9.999206543E-2;9.641001434E0;1.033510979E1
2.805819625E0;5.181624756E0;-7.379653931E-2;9.707912292E0;1.100446464E1
2.815798625E0;6.610403595E0;-3.360511780E-1;9.733658752E0;1.177091665E1
2.825777625E0;5.988446960E0;-2.640509033E-1;9.699529724E0;1.140228472E1
2.835756625E0;6.092630310E0;-3.942800903E-1;9.772877197E0;1.152322566E1
2.845735625E0;5.709427185E0;-7.566764832E-1;9.702972565E0;1.128351872E1
2.855714625E0;2.993175659E0;-4.507127380E-1;9.699230347E0;1.016057635E1
2.865693625E0;9.328601074E-1;-8.063731384E-1;9.757758636E0;9.835360656E0
2.875672625E0;3.210074615E0;-1.389111328E0;9.685458984E0;1.029768542E1
2.885651625E0;1.982193008E1;-1.258882141E-1;9.483379211E0;2.197405837E1
2.895631625E0;2.259117142E1;3.219654694E0;9.403894501E0;2.468117570E1
2.905610625E0;4.117487640E0;-5.581892395E-1;9.601333923E0;1.046187807E1
2.915589625E0;5.842201080E0;6.054908752E-1;9.788295135E0;1.141528161E1
2.925568625E0;7.206763458E0;1.264869690E0;9.695039063E0;1.214623881E1
2.935547625E0;7.254813538E0;8.752299500E-1;9.637708282E0;1.209478267E1
2.945526625E0;5.934109955E0;7.906558228E-1;9.631571045E0;1.134045671E1
2.955505625E0;1.733395386E0;1.422042847E-1;9.766141205E0;9.919798166E0
2.965484625E0;5.164260864E-2;-1.197509766E-2;9.780211945E0;9.780355619E0
2.975464625E0;3.555107117E-1;-9.879455566E-3;9.780960388E0;9.787424155E0
2.985443625E0;2.344125366E-1;-9.999206543E-2;9.774523773E0;9.777845501E0
2.995422625E0;2.386038208E-1;-7.409591675E-2;9.780960388E0;9.784150863E0
3.005401625E0;3.038681030E-1;-2.499801636E-2;9.786349182E0;9.791097540E0
3.015380625E0;2.842588806E-1;-2.634521484E-2;9.783654785E0;9.787818865E0
3.025359625E0;1.827699280E-1;-9.520202637E-2;9.777667236E0;9.779838693E0
3.035338625E0;-3.382965088E-1;-4.001179504E-1;9.799521790E0;9.813519563E0
3.045317625E0;2.731819153E-1;8.652008057E-2;9.790989532E0;9.795181984E0
3.055297625E0;4.646337891E-1;7.753875732E-2;9.790241089E0;9.801567089E0
3.065276625E0;5.731581116E-1;1.676513672E-2;9.774673462E0;9.791477548E0
3.075255625E0;6.256988525E-1;1.437011719E-1;9.761201477E0;9.782290292E0
3.085234625E0;5.063969421E-1;8.532257080E-2;9.774074707E0;9.787556088E0
3.095213625E0;3.987707520E-1;-2.589614868E-2;9.789492645E0;9.797645379E0
3.105192625E0;9.024732971E-1;-9.235794067E-2;9.783954163E0;9.825922201E0
3.115171625E0;9.645941162E-1;-8.187973022E-2;9.777517548E0;9.825324193E0
3.125150625E0;1.923500061E-1;-4.890330505E-1;9.804760895E0;9.818833335E0
3.135129625E0;-1.079405365E0;6.840774536E-2;9.788295135E0;9.847868664E0
3.145109625E0;3.423381042E-1;-3.586541748E-1;9.778265991E0;9.790828054E0
3.155088625E0;5.927673340E-2;2.727328491E-1;9.779463501E0;9.783445370E0
3.165067625E0;9.984237671E-2;3.700305176E-1;9.766440582E0;9.773957885E0
3.175046625E0;2.724334717E-1;-1.556762695E-2;9.801467743E0;9.805265538E0
3.185025625E0;2.576142883E-1;-2.110610962E-2;9.791438599E0;9.794849688E0
3.195004625E0;2.824626160E-1;1.826202393E-2;9.781409454E0;9.785504052E0
3.204983625E0;3.517684937E-1;3.442840576E-3;9.792486420E0;9.798803152E0
3.214962625E0;6.617738342E-1;1.788780212E-1;9.780960388E0;9.804954261E0
3.224942625E0;3.576063538E-1;1.127156067E-1;9.768685913E0;9.775879069E0
3.234921625E0;1.706451416E-2;-1.431024170E-1;9.785151672E0;9.786212891E0
3.244900625E0;6.795867920E-2;-2.115101624E-1;9.783505096E0;9.786027126E0
3.254879625E0;2.835104370E-1;-6.077362061E-2;9.787247314E0;9.791541329E0
3.264858625E0;1.954934692E-1;-1.083746338E-1;9.796677704E0;9.799227357E0
3.274837625E0;2.080673218E-1;-6.885681152E-2;9.791139221E0;9.793591809E0
3.284816625E0;2.549198914E-1;-1.257385254E-2;9.795779572E0;9.799104024E0
3.294795625E0;2.447410583E-1;-2.320175171E-2;9.789642334E0;9.792728605E0
3.304775625E0;2.927911377E-1;-2.754272461E-2;9.779014435E0;9.783435417E0
3.314754625E0;5.517526245E-1;-7.259902954E-2;9.782906342E0;9.798722267E0
3.324733625E0;2.408491516E-1;2.754272461E-2;9.783804474E0;9.786807288E0
3.334713333E0;2.769241333E-2;3.891906738E-3;9.788444824E0;9.788484770E0
3.344692333E0;1.347198486E-1;-4.251159668E-2;9.789342957E0;9.790362210E0
3.354671333E0;2.291734314E-1;-2.694396973E-2;9.792187042E0;9.794905488E0
3.364650333E0;2.736309814E-1;-2.918930054E-2;9.774074707E0;9.777947755E0
3.374629333E0;2.938389587E-1;-2.424957275E-2;9.780661011E0;9.785103943E0
3.384608333E0;2.552192688E-1;-2.993774414E-2;9.781858521E0;9.785233225E0
3.394588333E0;2.459385681E-1;-3.742218018E-2;9.785451050E0;9.788612693E0
3.404567333E0;2.511776733E-1;-3.233276367E-2;9.780361633E0;9.783639880E0
3.414546333E0;2.674937439E-1;-3.442840576E-2;9.790540466E0;9.794254481E0
3.424525333E0;2.944377136E-1;-3.068618774E-2;9.784552917E0;9.789030136E0
3.434504333E0;2.809657288E-1;-2.724334717E-2;9.783654785E0;9.787726237E0
3.444483333E0;2.821632385E-1;-2.679428101E-2;9.780960388E0;9.785066180E0
3.454462333E0;2.806663513E-1;-3.218307495E-2;9.787846069E0;9.791922182E0
3.464441333E0;2.779719543E-1;-3.442840576E-2;9.776320038E0;9.780331651E0
3.474421333E0;2.880010986E-1;-3.472778320E-2;9.783355408E0;9.787655168E0
3.484400333E0;2.935395813E-1;-3.233276367E-2;9.786049805E0;9.790504669E0
3.494379333E0;2.932402039E-1;-3.188369751E-2;9.781259766E0;9.785706361E0
3.504358333E0;2.956352234E-1;-3.203338623E-2;9.780211945E0;9.784731575E0
3.514337333E0;2.996768188E-1;-3.427871704E-2;9.781409454E0;9.786059071E0
3.524316333E0;2.917433167E-1;-3.562591553E-2;9.791737976E0;9.796148016E0
3.534295333E0;3.143463135E-1;-3.382965088E-2;9.783355408E0;9.788462652E0
3.544274333E0;2.987786865E-1;-3.652404785E-2;9.779912567E0;9.784543552E0
3.554253333E0;2.636018372E-1;-2.424957275E-2;9.787846069E0;9.791425057E0
3.564233333E0;2.842588806E-1;-3.412902832E-2;9.790989532E0;9.795174523E0
3.574212333E0;3.046165466E-1;-3.532653809E-2;9.783505096E0;9.788309924E0
3.584191333E0;3.079096985E-1;-3.487747192E-2;9.770332489E0;9.775245356E0
3.594170333E0;3.049159241E-1;-3.173400879E-2;9.783205719E0;9.788007709E0
3.604149333E0;3.004252625E-1;-3.547622681E-2;9.782008209E0;9.786684756E0
3.614128333E0;3.170407104E-1;-3.113525391E-2;9.790091400E0;9.795273035E0
3.624107333E0;3.116519165E-1;-3.308120728E-2;9.781409454E0;9.786428981E0
3.634086333E0;3.091072083E-1;-3.457809448E-2;9.782457275E0;9.787400741E0
3.644066333E0;3.403921509E-1;-4.086502075E-2;9.791887665E0;9.797887569E0
3.654045333E0;3.637435913E-1;-4.490661621E-2;9.788893890E0;9.795752631E0
3.664024333E0;5.352868652E-1;-4.625381470E-2;9.790540466E0;9.805271749E0
3.674003333E0;3.008743286E-1;-7.783813477E-3;9.788295135E0;9.792921301E0
3.683982333E0;1.950444031E-1;-4.685256958E-2;9.779613190E0;9.781670186E0
3.693961333E0;2.748284912E-1;-6.047424316E-2;9.783056030E0;9.787102387E0
3.703940333E0;3.192860413E-1;-4.775070190E-2;9.776320038E0;9.781649001E0
3.713919333E0;3.261717224E-1;-4.670288086E-2;9.770033112E0;9.775587765E0
3.723899333E0;3.381468201E-1;-4.191284180E-2;9.784552917E0;9.790483939E0
3.733878333E0;3.424877930E-1;-4.251159668E-2;9.791588287E0;9.797668412E0
3.743857333E0;3.414399719E-1;-4.340972900E-2;9.783505096E0;9.789557581E0
3.753836333E0;3.400927734E-1;-3.787124634E-2;9.778415680E0;9.784401389E0
3.763815333E0;3.459306335E-1;-4.400848389E-2;9.789642334E0;9.795851253E0
3.773794333E0;3.375480652E-1;-4.340972900E-2;9.784702606E0;9.790619398E0
3.783773333E0;3.379971313E-1;-4.655319214E-2;9.792935486E0;9.798877216E0
3.793752333E0;3.486250305E-1;-4.505630493E-2;9.782457275E0;9.788771109E0
3.803732333E0;3.529660034E-1;-4.355941772E-2;9.784852295E0;9.791313337E0
3.813711333E0;3.547622681E-1;-4.385879517E-2;9.786199493E0;9.792725891E0
3.823690333E0;3.620970154E-1;-4.924758911E-2;9.778565369E0;9.785391165E0
3.833669333E0;3.632945251E-1;-4.670288086E-2;9.785900116E0;9.792752685E0
3.843648333E0;3.772155762E-1;-4.864883423E-2;9.773925018E0;9.781322434E0
3.853627333E0;3.806584167E-1;-5.343887329E-2;9.780960388E0;9.788510748E0
3.863606333E0;3.849993896E-1;-4.760101318E-2;9.766889648E0;9.774590722E0
3.873585333E0;3.725752258E-1;-5.284011841E-2;9.791438599E0;9.798666961E0
3.883564333E0;3.661386108E-1;-4.939727783E-2;9.792037354E0;9.799004700E0
3.893544333E0;3.532653809E-1;-4.191284180E-2;9.786648560E0;9.793112026E0
3.903523333E0;3.450325012E-1;-4.939727783E-2;9.786947937E0;9.793152579E0
3.913502333E0;3.363505554E-1;-5.179229736E-2;9.783654785E0;9.789571752E0
3.923481333E0;3.450325012E-1;-4.745132446E-2;9.780810699E0;9.787009604E0
3.933460333E0;3.463796997E-1;-5.089416504E-2;9.783954163E0;9.790215941E0
3.943439333E0;3.421884155E-1;-3.951782227E-2;9.787696381E0;9.793755919E0
3.953418333E0;3.391946411E-1;-3.742218018E-2;9.793983307E0;9.799926655E0
3.963397333E0;4.369413757E-1;-6.047424316E-2;9.779313812E0;9.789257047E0
3.973376333E0;4.893324280E-1;-1.463955688E-1;9.779912567E0;9.793240920E0