"Time (s)";"Acceleration x (m/s^2)";"Acceleration y (m/s^2)";"Acceleration z (m/s^2)";"Absolute acceleration (m/s^2)"
6.143833334E-3;1.079255676E-1;1.215472412E-1;9.808652802E0;9.809999564E0
1.612283333E-2;9.340576172E-2;1.219963074E-1;9.758956146E0;9.760165613E0
2.610183333E-2;9.849517822E-2;1.230441284E-1;9.777966614E0;9.779236793E0
3.607983333E-2;8.981323242E-2;1.270857239E-1;9.778415680E0;9.779653900E0
4.605883333E-2;9.550140381E-2;1.190025330E-1;9.799970856E0;9.801158651E0
5.603783333E-2;9.654922485E-2;1.233435059E-1;9.800120544E0;9.801372254E0
6.601683333E-2;9.894424438E-2;1.284329224E-1;9.796228638E0;9.797570132E0
7.599583333E-2;1.001417542E-1;1.227447510E-1;9.782307587E0;9.783590157E0
8.597483333E-2;9.789642334E-2;1.285826111E-1;9.793085175E0;9.794418535E0
9.595383333E-2;9.175918579E-2;1.200503540E-1;9.794282684E0;9.795448185E0
1.059328333E-1;1.025367737E-1;1.261875916E-1;9.790390778E0;9.791740840E0
1.159118333E-1;9.086105347E-2;1.213975525E-1;9.783804474E0;9.784979462E0
1.258908333E-1;9.265731812E-2;1.193019104E-1;9.773176575E0;9.774343900E0
1.358698333E-1;9.639953613E-2;1.260379028E-1;9.786947937E0;9.788234179E0
1.458478333E-1;9.849517822E-2;1.284329224E-1;9.797426147E0;9.798762954E0
1.558268333E-1;9.116043091E-2;1.270857239E-1;9.806108093E0;9.807355247E0
1.658058333E-1;1.001417542E-1;1.225950623E-1;9.796378326E0;9.797657181E0
1.757848333E-1;9.669891357E-2;1.213975525E-1;9.795330505E0;9.796559996E0
1.857638333E-1;9.580078125E-2;1.191522217E-1;9.784702606E0;9.785897002E0
1.957428333E-1;1.005908203E-1;1.204994202E-1;9.788295135E0;9.789553630E0
2.057218333E-1;9.699829102E-2;1.185534668E-1;9.777218170E0;9.778418008E0
2.157008333E-1;9.056167603E-2;1.239422607E-1;9.780960388E0;9.782164853E0
2.256798333E-1;8.666976929E-2;1.216969299E-1;9.777517548E0;9.778658967E0
2.356588333E-1;9.565109253E-2;1.197509766E-1;9.782606964E0;9.783807461E0
2.456368333E-1;9.669891357E-2;1.221459961E-1;9.793683929E0;9.794922932E0
2.556158333E-1;9.744735718E-2;1.272354126E-1;9.792935486E0;9.794246794E0
2.655948333E-1;1.016386414E-1;1.266366577E-1;9.794132996E0;9.795478977E0
2.755738333E-1;9.550140381E-2;1.161584473E-1;9.785301361E0;9.786456766E0
2.855528333E-1;9.370513916E-2;1.196012878E-1;9.795180817E0;9.796359138E0
2.955318333E-1;9.385482788E-2;1.266366577E-1;9.796677704E0;9.797945683E0
3.055108333E-1;8.981323242E-2;1.204994202E-1;9.769134979E0;9.770290926E0
3.154898333E-1;9.624984741E-2;1.248403931E-1;9.775272217E0;9.776543155E0
3.254688333E-1;9.789642334E-2;1.224453735E-1;9.786049805E0;9.787305419E0
3.354478333E-1;9.520202637E-2;1.230441284E-1;9.784552917E0;9.785789650E0
3.454268333E-1;9.565109253E-2;1.243913269E-1;9.802066498E0;9.803322394E0
3.554058333E-1;1.049317932E-1;1.215472412E-1;9.807305603E0;9.808620066E0
3.653838333E-1;1.046324158E-1;1.249900818E-1;9.797725525E0;9.799081382E0
3.753628333E-1;1.046324158E-1;1.216969299E-1;9.788295135E0;9.789610807E0
3.853418333E-1;9.834548950E-2;1.210981750E-1;9.786798248E0;9.788041508E0
3.953208333E-1;9.220825195E-2;1.231938171E-1;9.788295135E0;9.789504622E0
4.052998333E-1;9.490264893E-2;1.196012878E-1;9.779014435E0;9.780206250E0
4.152788333E-1;8.577163696E-2;1.215472412E-1;9.774523773E0;9.775655758E0
4.252578333E-1;9.265731812E-2;1.252894592E-1;9.790839844E0;9.792079844E0
4.352368333E-1;9.460327148E-2;1.194515991E-1;9.788145447E0;9.789331425E0
4.452158333E-1;1.034349060E-1;1.234931946E-1;9.790540466E0;9.791865602E0
4.551948333E-1;9.759704590E-2;1.231938171E-1;9.806557159E0;9.807816537E0
4.651728333E-1;1.011895752E-1;1.142124939E-1;9.790390778E0;9.791579822E0
4.751518333E-1;9.295669556E-2;1.257385254E-1;9.787546692E0;9.788795706E0
4.851308333E-1;9.684860229E-2;1.202000427E-1;9.786498871E0;9.787716171E0
4.951098333E-1;9.116043091E-2;1.212478638E-1;9.787846069E0;9.789021501E0
5.050888333E-1;9.595046997E-2;1.216969299E-1;9.782906342E0;9.784133744E0
5.150678333E-1;9.774673462E-2;1.140628052E-1;9.775272217E0;9.776426324E0
5.250468333E-1;1.019380188E-1;1.166075134E-1;9.787995758E0;9.789221094E0
5.350258333E-1;9.415420532E-2;1.270857239E-1;9.791139221E0;9.792416609E0
5.450048333E-1;9.669891357E-2;1.218466187E-1;9.795929260E0;9.797164250E0
5.549838333E-1;9.624984741E-2;1.178050232E-1;9.804910583E0;9.806090638E0
5.649628333E-1;1.010398865E-1;1.285826111E-1;9.791139221E0;9.792504776E0
5.749408333E-1;9.490264893E-2;1.276844788E-1;9.784852295E0;9.786145527E0
5.849198333E-1;8.921447754E-2;1.239422607E-1;9.769434357E0;9.770627849E0
5.948988333E-1;8.217910767E-2;1.152603149E-1;9.781110077E0;9.782134362E0
6.048778333E-1;8.592132568E-2;1.243913269E-1;9.782457275E0;9.783625403E0
6.148568333E-1;9.370513916E-2;1.225950623E-1;9.787846069E0;9.789062308E0
6.248358333E-1;8.876541138E-2;1.209484863E-1;9.798773346E0;9.799921781E0
6.348148333E-1;8.981323242E-2;1.176553345E-1;9.796228638E0;9.797346820E0
6.447938333E-1;8.951385498E-2;1.212478638E-1;9.786199493E0;9.787359925E0
6.547728333E-1;9.684860229E-2;1.133143616E-1;9.786947937E0;9.788083046E0
6.647518333E-1;9.205856323E-2;1.251397705E-1;9.793384552E0;9.794616671E0
6.747308333E-1;9.610015869E-2;1.239422607E-1;9.803413696E0;9.804668124E0
6.847088333E-1;8.996292114E-2;1.251397705E-1;9.780361633E0;9.781575894E0
6.946878333E-1;8.831634521E-2;1.194515991E-1;9.771230621E0;9.772359813E0
7.046668333E-1;9.086105347E-2;1.252894592E-1;9.773925018E0;9.775150303E0
7.146458333E-1;9.190887451E-2;1.225950623E-1;9.792935486E0;9.794134072E0
7.246248333E-1;9.265731812E-2;1.145118713E-1;9.791887665E0;9.792995578E0
7.346038333E-1;9.699829102E-2;1.203497314E-1;9.797575836E0;9.798795079E0
7.445828333E-1;1.049317932E-1;1.215472412E-1;9.799372101E0;9.800687628E0
7.545618333E-1;9.340576172E-2;1.193019104E-1;9.800719299E0;9.801890449E0
7.645408333E-1;9.894424438E-2;1.303788757E-1;9.782008209E0;9.783377393E0
7.745198333E-1;1.002914429E-1;1.182540894E-1;9.773026886E0;9.774256847E0
7.844988333E-1;9.385482788E-2;1.206491089E-1;9.774673462E0;9.775868566E0
7.944768333E-1;9.624984741E-2;1.239422607E-1;9.775571594E0;9.776831067E0
8.044558333E-1;8.666976929E-2;1.219963074E-1;9.770482178E0;9.771628152E0
8.144348333E-1;9.699829102E-2;1.219963074E-1;9.792187042E0;9.793427328E0
8.244138333E-1;9.445358276E-2;1.260379028E-1;9.803862762E0;9.805127847E0
8.343928333E-1;1.043330383E-1;1.149609375E-1;9.788145447E0;9.789376522E0
8.443718333E-1;9.011260986E-2;1.228944397E-1;9.796228638E0;9.797413886E0
8.543508333E-1;9.235794067E-2;1.176553345E-1;9.792037354E0;9.793179683E0
8.643298333E-1;9.310638428E-2;1.173559570E-1;9.799072723E0;9.800217725E0
8.743088333E-1;9.445358276E-2;1.236428833E-1;9.786648560E0;9.787885322E0
8.842878333E-1;8.756790161E-2;1.228944397E-1;9.781559143E0;9.782723059E0
8.942668333E-1;8.681945801E-2;1.224453735E-1;9.773925018E0;9.775077532E0
9.042448333E-1;9.445358276E-2;1.206491089E-1;9.779463501E0;9.780663784E0
9.142238333E-1;1.023870850E-1;1.233435059E-1;9.799372101E0;9.800683155E0
9.242028333E-1;9.714797974E-2;1.248403931E-1;9.802365875E0;9.803642160E0
9.341818333E-1;1.070274353E-1;1.255888367E-1;9.800868988E0;9.802257921E0
9.441608333E-1;9.864486694E-2;1.204994202E-1;9.795031128E0;9.796268969E0
9.541398333E-1;9.460327148E-2;1.254391479E-1;9.790091400E0;9.791352020E0
9.641188333E-1;9.565109253E-2;1.237925720E-1;9.772577820E0;9.773829903E0
9.740978333E-1;9.385482788E-2;1.251397705E-1;9.769883423E0;9.771135594E0
9.840768333E-1;8.831634521E-2;1.266366577E-1;9.774224396E0;9.775443681E0
9.940558333E-1;8.711883545E-2;1.207987976E-1;9.779164124E0;9.780298206E0
1.004034833E0;9.086105347E-2;1.167572021E-1;9.791887665E0;9.793005260E0
1.014012833E0;9.984237671E-2;1.224453735E-1;9.798024902E0;9.799298616E0
1.023991833E0;9.684860229E-2;1.202000427E-1;9.783654785E0;9.784872439E0
1.033970833E0;9.595046997E-2;1.222956848E-1;9.791588287E0;9.792822061E0
1.043949833E0;9.969268799E-2;1.210981750E-1;9.791139221E0;9.792395552E0
1.053928833E0;9.714797974E-2;1.248403931E-1;9.797126770E0;9.798403737E0
1.063907833E0;9.699829102E-2;1.237925720E-1;9.773625641E0;9.774890866E0
1.073886833E0;9.909393311E-2;1.187031555E-1;9.776170349E0;9.777393147E0
1.083865833E0;9.325607300E-2;1.088237000E-1;9.784253540E0;9.785303093E0
1.093844833E0;9.071136475E-2;1.106199646E-1;9.782457275E0;9.783503241E0
1.103823833E0;9.235794067E-2;1.236428833E-1;9.793833618E0;9.795049489E0
1.113802833E0;9.520202637E-2;1.245410156E-1;9.801767120E0;9.803020584E0
1.123780833E0;9.894424438E-2;1.161584473E-1;9.790989532E0;9.792178449E0
1.133759833E0;9.939331055E-2;1.257385254E-1;9.799671478E0;9.800982108E0
1.143738833E0;9.939331055E-2;1.215472412E-1;9.800419922E0;9.801677581E0
1.153717833E0;9.744735718E-2;1.193019104E-1;9.784852295E0;9.786064754E0
1.163696833E0;9.295669556E-2;1.202000427E-1;9.770631866E0;9.771813346E0
1.173675833E0;8.756790161E-2;1.202000427E-1;9.771979065E0;9.773110612E0
1.183654833E0;8.472381592E-2;1.209484863E-1;9.778265991E0;9.779380985E0
1.193633833E0;8.532257080E-2;1.181044006E-1;9.778715057E0;9.779800446E0
1.203612833E0;9.460327148E-2;1.204994202E-1;9.798773346E0;9.799970866E0
1.213591833E0;9.744735718E-2;1.175056458E-1;9.796977081E0;9.798166333E0
1.223570833E0;1.011895752E-1;1.196012878E-1;9.810598755E0;9.811849557E0
1.233548833E0;9.160949707E-2;1.164578247E-1;9.789941711E0;9.791062937E0
1.243527833E0;9.535171509E-2;1.175056458E-1;9.782906342E0;9.784076656E0
1.253506833E0;9.984237671E-2;1.233435059E-1;9.781259766E0;9.782546945E0
1.263485833E0;8.277786255E-2;1.193019104E-1;9.780211945E0;9.781289833E0
1.273464833E0;8.637039185E-2;1.254391479E-1;9.788145447E0;9.789330218E0
1.283443833E0;9.265731812E-2;1.231938171E-1;9.790989532E0;9.792202925E0
1.293422833E0;9.460327148E-2;1.242416382E-1;9.782307587E0;9.783553929E0
1.303401833E0;1.013392639E-1;1.184037781E-1;9.782906342E0;9.784147668E0
1.313380833E0;1.028361511E-1;1.176553345E-1;9.793534241E0;9.794780803E0
1.323359833E0;1.011895752E-1;1.199006653E-1;9.788594513E0;9.789851788E0
1.333338833E0;8.906478882E-2;1.221459961E-1;9.801018677E0;9.802184414E0
1.343316833E0;9.235794067E-2;1.149609375E-1;9.802365875E0;9.803475035E0
1.353295833E0;9.385482788E-2;1.173559570E-1;9.786798248E0;9.787951834E0
1.363274833E0;9.250762939E-2;1.248403931E-1;9.780511322E0;9.781745473E0
1.373253833E0;9.445358276E-2;1.197509766E-1;9.774823151E0;9.776012960E0
1.383232833E0;9.595046997E-2;1.243913269E-1;9.781858521E0;9.783119943E0
1.393211833E0;1.020877075E-1;1.212478638E-1;9.795929260E0;9.797211492E0
1.403190833E0;1.010398865E-1;1.237925720E-1;9.786049805E0;9.787354313E0
1.413169833E0;9.729766846E-2;1.222956848E-1;9.797276459E0;9.798522801E0
1.423148833E0;1.035845947E-1;1.158590698E-1;9.789492645E0;9.790726191E0
1.433127833E0;9.250762939E-2;1.225950623E-1;9.780361633E0;9.781567405E0
1.443106833E0;9.669891357E-2;1.225950623E-1;9.792636108E0;9.793880854E0
1.453084833E0;1.005908203E-1;1.275347900E-1;9.784702606E0;9.786050722E0
1.463063833E0;9.131011963E-2;1.215472412E-1;9.779762878E0;9.780944393E0
1.473042833E0;8.592132568E-2;1.184037781E-1;9.782008209E0;9.783102092E0
1.483021833E0;9.460327148E-2;1.173559570E-1;9.778864746E0;9.780026479E0
1.493000833E0;8.771759033E-2;1.197509766E-1;9.791438599E0;9.792563735E0
1.502979833E0;9.684860229E-2;1.249900818E-1;9.797575836E0;9.798851690E0
1.512958833E0;1.053808594E-1;1.219963074E-1;9.797126770E0;9.798452999E0
1.522937833E0;9.969268799E-2;1.230441284E-1;9.789941711E0;9.791222457E0
1.532916833E0;9.190887451E-2;1.182540894E-1;9.792935486E0;9.794080697E0
1.542895833E0;9.415420532E-2;1.221459961E-1;9.774074707E0;9.775291353E0
1.552874833E0;9.415420532E-2;1.203497314E-1;9.779164124E0;9.780357868E0
1.562852833E0;9.370513916E-2;1.194515991E-1;9.768685913E0;9.769865598E0
1.572831833E0;8.771759033E-2;1.264869690E-1;9.778116302E0;9.779327776E0
1.582810833E0;8.876541138E-2;1.199006653E-1;9.781110077E0;9.782247687E0
1.592789833E0;9.744735718E-2;1.197509766E-1;9.802216187E0;9.803431973E0
1.602768833E0;1.010398865E-1;1.246907043E-1;9.791438599E0;9.792753783E0
1.612747833E0;1.002914429E-1;1.197509766E-1;9.792935486E0;9.794181135E0
1.622726833E0;9.490264893E-2;1.160087585E-1;9.780661011E0;9.781809360E0
1.632705833E0;9.580078125E-2;1.218466187E-1;9.786049805E0;9.787277209E0
1.642684833E0;9.145980835E-2;1.160087585E-1;9.786947937E0;9.788062773E0
1.652663833E0;9.011260986E-2;1.228944397E-1;9.783654785E0;9.784841556E0
1.662642833E0;9.385482788E-2;1.278341675E-1;9.781110077E0;9.782395649E0
1.672620833E0;9.026229858E-2;1.113684082E-1;9.774374084E0;9.775425257E0
1.682599833E0;8.846603394E-2;1.285826111E-1;9.797426147E0;9.798669238E0
1.692578833E0;9.340576172E-2;1.300794983E-1;9.798174591E0;9.799483182E0
1.702557833E0;8.936416626E-2;1.207987976E-1;9.800120544E0;9.801272417E0
1.712536750E0;9.939331055E-2;1.130149841E-1;9.799521790E0;9.800677462E0
1.722515750E0;1.032852173E-1;1.184037781E-1;9.787546692E0;9.788807769E0
1.732494750E0;9.520202637E-2;1.140628052E-1;9.782606964E0;9.783735113E0
1.742473750E0;9.445358276E-2;1.175056458E-1;9.780062256E0;9.781224197E0
1.752452750E0;9.954299927E-2;1.252894592E-1;9.787546692E0;9.788854708E0
1.762431750E0;9.355545044E-2;1.227447510E-1;9.790989532E0;9.792205825E0
1.772410750E0;9.445358276E-2;1.236428833E-1;9.784552917E0;9.785789944E0
1.782388750E0;9.086105347E-2;1.197509766E-1;9.780960388E0;9.782115423E0
1.792367750E0;9.160949707E-2;1.131646729E-1;9.792785797E0;9.793868092E0
1.802346750E0;1.008901978E-1;1.193019104E-1;9.799222412E0;9.800467931E0
1.812325750E0;1.011895752E-1;1.227447510E-1;9.790540466E0;9.791832731E0
1.822304750E0;8.577163696E-2;1.231938171E-1;9.783954163E0;9.785105648E0
1.832283750E0;9.475296021E-2;1.206491089E-1;9.782906342E0;9.784109097E0
1.842262750E0;8.876541138E-2;1.219963074E-1;9.780361633E0;9.781525243E0
1.852241750E0;9.669891357E-2;1.191522217E-1;9.786049805E0;9.787252868E0
1.862220750E0;1.005908203E-1;1.191522217E-1;9.792187042E0;9.793428554E0
1.872199750E0;9.280700684E-2;1.181044006E-1;9.789792023E0;9.790944267E0
1.882178750E0;9.939331055E-2;1.222956848E-1;9.792785797E0;9.794053754E0
1.892156750E0;9.131011963E-2;1.196012878E-1;9.800569611E0;9.801724680E0
1.902135750E0;1.029858398E-1;1.231938171E-1;9.790540466E0;9.791857098E0
1.912114750E0;1.059796143E-1;1.213975525E-1;9.793983307E0;9.795308982E0
1.922093750E0;1.023870850E-1;1.209484863E-1;9.788893890E0;9.790176467E0
1.932072750E0;9.116043091E-2;1.228944397E-1;9.776769104E0;9.777966424E0
1.942051750E0;9.804611206E-2;1.239422607E-1;9.773026886E0;9.774304540E0
1.952030750E0;8.801696777E-2;1.281335449E-1;9.782008209E0;9.783243317E0
1.962009750E0;9.056167603E-2;1.248403931E-1;9.800120544E0;9.801334053E0
1.971988750E0;9.909393311E-2;1.185534668E-1;9.791288910E0;9.792508006E0
1.981967750E0;9.714797974E-2;1.222956848E-1;9.785151672E0;9.786398072E0
1.991946750E0;1.010398865E-1;1.224453735E-1;9.784403229E0;9.785691006E0
2.001924750E0;1.010398865E-1;1.151106262E-1;9.796378326E0;9.797575610E0
2.011903750E0;8.936416626E-2;1.240919495E-1;9.793085175E0;9.794279045E0
2.021882750E0;9.265731812E-2;1.172062683E-1;9.788295135E0;9.789435344E0
2.031861750E0;8.666976929E-2;1.158590698E-1;9.773775330E0;9.774846248E0
2.041840750E0;8.951385498E-2;1.216969299E-1;9.789792023E0;9.790957600E0
2.051819750E0;9.460327148E-2;1.227447510E-1;9.795330505E0;9.796556322E0
2.061798750E0;1.032852173E-1;1.261875916E-1;9.793983307E0;9.795340737E0
2.071777750E0;9.789642334E-2;1.207987976E-1;9.783355408E0;9.784590901E0
2.081756750E0;9.071136475E-2;1.231938171E-1;9.790241089E0;9.791436353E0
2.091735750E0;9.430389404E-2;1.202000427E-1;9.791887665E0;9.793079460E0
2.101714750E0;9.235794067E-2;1.258882141E-1;9.796378326E0;9.797622474E0
2.111692750E0;9.924362183E-2;1.312770081E-1;9.794132996E0;9.795515509E0
2.121671750E0;9.624984741E-2;1.251397705E-1;9.784403229E0;9.785676805E0
2.131650750E0;8.831634521E-2;1.270857239E-1;9.783954163E0;9.785178057E0
2.141629750E0;9.131011963E-2;1.306782532E-1;9.780661011E0;9.781960138E0
2.151608750E0;8.547225952E-2;1.233435059E-1;9.784253540E0;9.785404257E0
2.161587750E0;9.520202637E-2;1.172062683E-1;9.793983307E0;9.795147255E0
2.171566750E0;9.669891357E-2;1.140628052E-1;9.787696381E0;9.788838616E0
2.181545750E0;9.475296021E-2;1.169068909E-1;9.797426147E0;9.798581758E0
2.191524750E0;1.026864624E-1;1.228944397E-1;9.798923035E0;9.800231640E0
2.201503750E0;9.400451660E-2;1.225950623E-1;9.795180817E0;9.796399013E0
2.211482750E0;9.759704590E-2;1.175056458E-1;9.788744202E0;9.789935945E0
2.221460750E0;9.460327148E-2;1.187031555E-1;9.783355408E0;9.784532858E0
2.231439750E0;9.220825195E-2;1.266366577E-1;9.779014435E0;9.780269041E0
2.241418750E0;9.520202637E-2;1.202000427E-1;9.783205719E0;9.784407270E0
2.251397750E0;9.879455566E-2;1.266366577E-1;9.783205719E0;9.784524074E0
2.261376750E0;9.175918579E-2;1.219963074E-1;9.790690155E0;9.791880134E0
2.271355750E0;9.295669556E-2;1.178050232E-1;9.782157898E0;9.783308853E0
2.281334750E0;9.849517822E-2;1.242416382E-1;9.793833618E0;9.795116856E0
2.291313750E0;9.759704590E-2;1.239422607E-1;9.800569611E0;9.801839193E0
2.301292750E0;9.535171509E-2;1.284329224E-1;9.795629883E0;9.796935836E0
2.311271750E0;9.190887451E-2;1.275347900E-1;9.788444824E0;9.789707066E0
2.321250750E0;8.397537231E-2;1.191522217E-1;9.783654785E0;9.784740675E0
2.331228750E0;9.116043091E-2;1.203497314E-1;9.768087158E0;9.769253862E0
2.341207750E0;8.562194824E-2;1.188528442E-1;9.783954163E0;9.785050647E0
2.351186750E0;9.071136475E-2;1.279838562E-1;9.785900116E0;9.787157376E0
2.361165750E0;9.984237671E-2;1.221459961E-1;9.787097626E0;9.788369020E0
2.371144750E0;9.879455566E-2;1.196012878E-1;9.789193268E0;9.790422344E0
2.381123750E0;9.071136475E-2;1.179547119E-1;9.790690155E0;9.791820851E0
2.391102750E0;8.532257080E-2;1.219963074E-1;9.793833618E0;9.794965032E0
2.401081750E0;9.924362183E-2;1.209484863E-1;9.801168365E0;9.802417006E0
2.411060750E0;9.894424438E-2;1.242416382E-1;9.781110077E0;9.782399516E0
2.421039750E0;9.460327148E-2;1.154100037E-1;9.767638092E0;9.768777976E0
2.431018750E0;9.699829102E-2;1.285826111E-1;9.789043579E0;9.790368550E0
2.440996750E0;8.846603394E-2;1.206491089E-1;9.789342957E0;9.790486095E0
2.450975750E0;9.190887451E-2;1.246907043E-1;9.796078949E0;9.797303598E0
2.460954750E0;1.002914429E-1;1.218466187E-1;9.788744202E0;9.790016242E0
2.470933750E0;1.002914429E-1;1.213975525E-1;9.782157898E0;9.783425212E0
2.480912750E0;9.535171509E-2;1.234931946E-1;9.783355408E0;9.784599407E0
2.490891750E0;9.699829102E-2;1.154100037E-1;9.803413696E0;9.804572823E0
2.500870750E0;1.038839722E-1;1.234931946E-1;9.805060272E0;9.806388193E0
2.510849750E0;9.086105347E-2;1.212478638E-1;9.794731750E0;9.795903574E0
2.520828750E0;9.954299927E-2;1.210981750E-1;9.773775330E0;9.775032367E0
2.530807750E0;9.520202637E-2;1.193019104E-1;9.772877197E0;9.774069014E0
2.540786750E0;9.565109253E-2;1.252894592E-1;9.775870972E0;9.777141701E0
2.550764750E0;9.190887451E-2;1.199006653E-1;9.798174591E0;9.799339199E0
2.560743750E0;9.744735718E-2;1.276844788E-1;9.809101868E0;9.810416850E0
2.570722750E0;9.804611206E-2;1.230441284E-1;9.796378326E0;9.797641615E0
2.580701750E0;9.580078125E-2;1.207987976E-1;9.791438599E0;9.792652346E0
2.590680750E0;9.385482788E-2;1.213975525E-1;9.778864746E0;9.780068600E0
2.600659750E0;1.020877075E-1;1.118174744E-1;9.781559143E0;9.782730923E0
2.610638750E0;9.175918579E-2;1.234931946E-1;9.780661011E0;9.781870993E0
2.620617750E0;8.891510010E-2;1.278341675E-1;9.789642334E0;9.790880680E0
2.630596750E0;9.475296021E-2;1.175056458E-1;9.776469727E0;9.777634991E0
2.640575750E0;9.041198730E-2;1.194515991E-1;9.786947937E0;9.788094449E0
2.650554750E0;9.580078125E-2;1.222956848E-1;9.790540466E0;9.791772906E0
2.660532750E0;9.250762939E-2;1.216969299E-1;9.794881439E0;9.796074225E0
2.670511750E0;9.295669556E-2;1.219963074E-1;9.791139221E0;9.792340440E0
2.680490750E0;9.669891357E-2;1.149609375E-1;9.799072723E0;9.800224127E0
2.690469750E0;9.894424438E-2;1.254391479E-1;9.786947937E0;9.788251880E0
2.700448750E0;8.367599487E-2;1.206491089E-1;9.789941711E0;9.791042671E0
2.710428000E0;8.726852417E-2;1.258882141E-1;9.785151672E0;9.786350540E0
2.720407000E0;9.086105347E-2;1.228944397E-1;9.770332489E0;9.771527809E0
2.730386000E0;1.002914429E-1;1.131646729E-1;9.770182800E0;9.771352852E0
2.740365000E0;1.007405090E-1;1.184037781E-1;9.782906342E0;9.784141485E0
2.750344000E0;9.999206543E-2;1.185534668E-1;9.793384552E0;9.794612515E0
2.760323000E0;1.022373962E-1;1.185534668E-1;9.796827393E0;9.798078096E0
2.770301000E0;1.031355286E-1;1.197509766E-1;9.794731750E0;9.796006702E0
2.780280000E0;1.067280579E-1;1.231938171E-1;9.788594513E0;9.789951488E0
2.790259000E0;9.400451660E-2;1.210981750E-1;9.776918793E0;9.778120612E0
2.800238000E0;9.235794067E-2;1.242416382E-1;9.791887665E0;9.793111355E0
2.810217000E0;9.265731812E-2;1.173559570E-1;9.787995758E0;9.789137794E0
2.820196000E0;9.654922485E-2;1.249900818E-1;9.778415680E0;9.779691073E0
2.830175000E0;9.610015869E-2;1.209484863E-1;9.777966614E0;9.779186821E0
2.840154000E0;8.981323242E-2;1.239422607E-1;9.785151672E0;9.786348724E0
2.850133000E0;9.595046997E-2;1.196012878E-1;9.791288910E0;9.792489442E0
2.860112000E0;9.610015869E-2;1.134640503E-1;9.791887665E0;9.793016561E0
2.870091000E0;1.032852173E-1;1.178050232E-1;9.792037354E0;9.793290631E0
2.880069000E0;1.025367737E-1;1.219963074E-1;9.788145447E0;9.789442690E0
2.890048000E0;9.789642334E-2;1.202000427E-1;9.799671478E0;9.800897553E0
2.900027000E0;9.430389404E-2;1.173559570E-1;9.779762878E0;9.780921613E0
2.910006000E0;9.684860229E-2;1.155596924E-1;9.780661011E0;9.781823117E0
2.919985000E0;8.906478882E-2;1.178050232E-1;9.765243073E0;9.766359753E0
2.929964000E0;9.699829102E-2;1.254391479E-1;9.782307587E0;9.783592662E0
2.939943000E0;9.310638428E-2;1.203497314E-1;9.796378326E0;9.797559960E0
2.949922000E0;1.005908203E-1;1.146615601E-1;9.799671478E0;9.800858476E0
2.959901000E0;1.008901978E-1;1.234931946E-1;9.792037354E0;9.793335741E0
2.969880000E0;9.849517822E-2;1.207987976E-1;9.790540466E0;9.791781057E0
2.979859000E0;8.966354370E-2;1.260379028E-1;9.793085175E0;9.794306629E0
2.989837000E0;9.624984741E-2;1.206491089E-1;9.793085175E0;9.794301276E0
2.999816000E0;9.220825195E-2;1.170565796E-1;9.791588287E0;9.792722083E0
3.009795000E0;9.430389404E-2;1.216969299E-1;9.787397003E0;9.788607841E0
3.019774000E0;9.250762939E-2;1.248403931E-1;9.782457275E0;9.783691181E0
3.029753000E0;9.295669556E-2;1.278341675E-1;9.782906342E0;9.784183104E0
3.039732000E0;9.580078125E-2;1.224453735E-1;9.774374084E0;9.775610436E0
3.049711000E0;9.654922485E-2;1.237925720E-1;9.792336731E0;9.793595101E0
3.059690000E0;1.005908203E-1;1.242416382E-1;9.794132996E0;9.795437491E0
3.069669000E0;1.005908203E-1;1.193019104E-1;9.786798248E0;9.788042267E0
3.079648000E0;1.091230774E-1;1.234931946E-1;9.777517548E0;9.778906269E0
3.089627000E0;1.044827271E-1;1.218466187E-1;9.786498871E0;9.787815047E0
3.099605000E0;9.909393311E-2;1.221459961E-1;9.783804474E0;9.785068688E0
3.109584000E0;9.639953613E-2;1.199006653E-1;9.782307587E0;9.783517300E0
3.119563000E0;8.831634521E-2;1.191522217E-1;9.790091400E0;9.791214769E0
3.129542000E0;9.295669556E-2;1.239422607E-1;9.796528015E0;9.797752997E0
3.139521000E0;1.089733887E-1;1.194515991E-1;9.792785797E0;9.794120560E0
3.149500000E0;9.939331055E-2;1.236428833E-1;9.775122528E0;9.776409721E0
3.159479000E0;1.050814819E-1;1.149609375E-1;9.780960388E0;9.782200379E0
3.169458000E0;9.744735718E-2;1.267863464E-1;9.781559143E0;9.782866146E0
3.179437000E0;9.595046997E-2;1.188528442E-1;9.793983307E0;9.795174399E0
3.189416000E0;1.016386414E-1;1.212478638E-1;9.792037354E0;9.793315424E0
3.199395000E0;9.235794067E-2;1.222956848E-1;9.787995758E0;9.789195431E0
3.209373000E0;9.250762939E-2;1.175056458E-1;9.775122528E0;9.776266449E0
3.219352000E0;9.175918579E-2;1.191522217E-1;9.778265991E0;9.779422416E0
3.229331000E0;9.804611206E-2;1.191522217E-1;9.788594513E0;9.789810664E0
3.239310000E0;9.759704590E-2;1.169068909E-1;9.797126770E0;9.798310331E0
3.249289000E0;1.020877075E-1;1.204994202E-1;9.806257782E0;9.807529439E0
3.259268000E0;1.067280579E-1;1.251397705E-1;9.808503113E0;9.809881964E0
3.269247000E0;1.017883301E-1;1.188528442E-1;9.789792023E0;9.791042575E0
3.279226000E0;1.014889526E-1;1.169068909E-1;9.778864746E0;9.780090130E0
3.289205000E0;9.639953613E-2;1.264869690E-1;9.779014435E0;9.780307518E0
3.299184000E0;9.370513916E-2;1.176553345E-1;9.784702606E0;9.785858599E0
3.309162000E0;8.352630615E-2;1.209484863E-1;9.794582062E0;9.795684915E0
3.319141000E0;9.295669556E-2;1.206491089E-1;9.788444824E0;9.789629678E0
3.329120000E0;9.490264893E-2;1.197509766E-1;9.782606964E0;9.783800173E0
3.339099000E0;9.624984741E-2;1.252894592E-1;9.800419922E0;9.801693330E0
3.349078000E0;9.939331055E-2;1.219963074E-1;9.803563385E0;9.804826218E0
3.359057000E0;9.819580078E-2;1.236428833E-1;9.797575836E0;9.798848006E0
3.369036000E0;1.019380188E-1;1.187031555E-1;9.787247314E0;9.788497933E0
3.379015000E0;9.774673462E-2;1.166075134E-1;9.785301361E0;9.786484275E0
3.388994000E0;9.460327148E-2;1.209484863E-1;9.785301361E0;9.786506069E0
3.398973000E0;8.951385498E-2;1.249900818E-1;9.781409454E0;9.782617552E0
3.408952000E0;9.071136475E-2;1.251397705E-1;9.781559143E0;9.782780166E0
3.418931000E0;1.029858398E-1;1.212478638E-1;9.781110077E0;9.782403665E0
3.428909000E0;9.445358276E-2;1.243913269E-1;9.793983307E0;9.795228619E0
3.438888000E0;9.445358276E-2;1.252894592E-1;9.808203735E0;9.809458672E0
3.448867000E0;9.669891357E-2;1.190025330E-1;9.799372101E0;9.800571711E0
3.458846000E0;9.445358276E-2;1.184037781E-1;9.789642334E0;9.790813958E0
3.468825000E0;9.924362183E-2;1.260379028E-1;9.778265991E0;9.779581824E0
3.478804000E0;9.624984741E-2;1.266366577E-1;9.785750427E0;9.787043083E0
3.488783000E0;8.711883545E-2;1.179547119E-1;9.779762878E0;9.780862179E0
3.498762000E0;9.595046997E-2;1.206491089E-1;9.778864746E0;9.780079674E0
3.508741000E0;9.475296021E-2;1.320254517E-1;9.783804474E0;9.785154001E0
3.518720000E0;9.205856323E-2;1.204994202E-1;9.788594513E0;9.789769018E0
3.528698000E0;9.939331055E-2;1.237925720E-1;9.791588287E0;9.792875207E0
3.538677000E0;9.864486694E-2;1.254391479E-1;9.785001984E0;9.786303164E0
3.548656000E0;9.999206543E-2;1.261875916E-1;9.791588287E0;9.792911871E0
3.558635000E0;1.013392639E-1;1.196012878E-1;9.788444824E0;9.789700005E0
3.568614000E0;9.909393311E-2;1.191522217E-1;9.785600739E0;9.786827815E0
3.578593000E0;9.475296021E-2;1.242416382E-1;9.790989532E0;9.792236217E0
3.588572000E0;9.789642334E-2;1.225950623E-1;9.780661011E0;9.781919191E0
3.598551000E0;9.535171509E-2;1.216969299E-1;9.784103851E0;9.785325251E0
3.608530000E0;1.017883301E-1;1.219963074E-1;9.789043579E0;9.790332893E0
3.618509000E0;9.190887451E-2;1.172062683E-1;9.789642334E0;9.790775331E0
3.628488000E0;9.610015869E-2;1.210981750E-1;9.789492645E0;9.790713266E0
3.638467000E0;9.744735718E-2;1.212478638E-1;9.781409454E0;9.782646265E0
3.648445000E0;9.475296021E-2;1.228944397E-1;9.794132996E0;9.795362285E0
3.658424000E0;9.295669556E-2;1.209484863E-1;9.803264008E0;9.804450759E0
3.668403000E0;9.520202637E-2;1.134640503E-1;9.782606964E0;9.783728151E0
3.678382000E0;9.011260986E-2;1.179547119E-1;9.770182800E0;9.771310329E0
3.688361000E0;9.190887451E-2;1.161584473E-1;9.774823151E0;9.775945358E0
3.698340000E0;9.056167603E-2;1.290316772E-1;9.789792023E0;9.791061150E0
3.708318458E0;9.490264893E-2;1.200503540E-1;9.795180817E0;9.796376158E0
3.718297458E0;9.160949707E-2;1.167572021E-1;9.791887665E0;9.793012232E0
3.728276458E0;1.040336609E-1;1.170565796E-1;9.780361633E0;9.781615353E0
3.738255458E0;9.400451660E-2;1.167572021E-1;9.776769104E0;9.777918143E0
3.748233458E0;9.295669556E-2;1.209484863E-1;9.797126770E0;9.798314265E0
3.758212458E0;9.205856323E-2;1.196012878E-1;9.803264008E0;9.804425758E0
3.768191458E0;9.430389404E-2;1.169068909E-1;9.791737976E0;9.792889923E0
3.778170458E0;1.092727661E-1;1.248403931E-1;9.774374084E0;9.775782035E0
3.788149458E0;8.861572266E-2;1.175056458E-1;9.773026886E0;9.774134992E0
3.798128458E0;9.819580078E-2;1.249900818E-1;9.785151672E0;9.786442571E0
3.808107458E0;1.038839722E-1;1.190025330E-1;9.787397003E0;9.788671696E0
3.818086458E0;1.023870850E-1;1.207987976E-1;9.791737976E0;9.793018332E0
3.828065458E0;1.014889526E-1;1.169068909E-1;9.813592529E0;9.814813577E0
3.838044458E0;1.010398865E-1;1.200503540E-1;9.794282684E0;9.795539518E0
3.848023458E0;9.759704590E-2;1.221459961E-1;9.798473969E0;9.799721268E0
3.858002458E0;8.337661743E-2;1.170565796E-1;9.786648560E0;9.787703711E0
3.867980458E0;8.696914673E-2;1.278341675E-1;9.779014435E0;9.780236629E0
3.877959458E0;9.190887451E-2;1.270857239E-1;9.780661011E0;9.781918413E0
3.887938458E0;9.505233765E-2;1.206491089E-1;9.778265991E0;9.779472222E0
3.897917458E0;9.939331055E-2;1.221459961E-1;9.782157898E0;9.783425362E0
3.907896458E0;9.759704590E-2;1.239422607E-1;9.784552917E0;9.785824578E0
3.917875458E0;1.022373962E-1;1.173559570E-1;9.783505096E0;9.784743067E0
3.927854458E0;9.280700684E-2;1.204994202E-1;9.793384552E0;9.794565546E0
3.937833458E0;9.101074219E-2;1.218466187E-1;9.792785797E0;9.793966675E0
3.947812458E0;9.729766846E-2;1.175056458E-1;9.796528015E0;9.797715834E0
3.957791458E0;9.879455566E-2;1.127156067E-1;9.784103851E0;9.785251828E0
3.967769458E0;9.460327148E-2;1.203497314E-1;9.779313812E0;9.780511872E0
3.977748458E0;9.265731812E-2;1.173559570E-1;9.771529999E0;9.772673959E0
3.987727458E0;9.430389404E-2;1.142124939E-1;9.775870972E0;9.776992941E0
3.997706458E0;9.116043091E-2;1.228944397E-1;9.779014435E0;9.780211480E0
4.007685458E0;9.969268799E-2;1.246907043E-1;9.790839844E0;9.792141301E0
4.017664458E0;9.804611206E-2;1.291813660E-1;9.802066498E0;9.803408004E0
4.027643458E0;9.565109253E-2;1.261875916E-1;9.792336731E0;9.793616854E0
4.037622458E0;9.999206543E-2;1.225950623E-1;9.792486420E0;9.793764253E0
4.047601458E0;9.535171509E-2;1.203497314E-1;9.794881439E0;9.796084851E0
4.057580458E0;9.580078125E-2;1.160087585E-1;9.787995758E0;9.789151995E0
4.067559458E0;9.295669556E-2;1.236428833E-1;9.784103851E0;9.785326601E0
4.077537458E0;9.340576172E-2;1.200503540E-1;9.782008209E0;9.783190754E0
4.087516458E0;9.445358276E-2;1.219963074E-1;9.779313812E0;9.780530825E0
4.097495458E0;9.490264893E-2;1.245410156E-1;9.792785797E0;9.794037505E0
4.107474458E0;9.295669556E-2;1.228944397E-1;9.798024902E0;9.799236500E0
4.117453458E0;9.325607300E-2;1.228944397E-1;9.787397003E0;9.788612764E0
4.127432458E0;1.040336609E-1;1.203497314E-1;9.799072723E0;9.800363937E0
4.137411458E0;1.074765015E-1;1.207987976E-1;9.793085175E0;9.794419880E0
4.147390458E0;9.729766846E-2;1.184037781E-1;9.796827393E0;9.798025987E0
4.157369458E0;9.295669556E-2;1.261875916E-1;9.793085175E0;9.794339258E0
4.167348458E0;9.969268799E-2;1.228944397E-1;9.781259766E0;9.782539766E0
4.177327458E0;9.460327148E-2;1.224453735E-1;9.769733734E0;9.770959005E0
4.187305458E0;8.711883545E-2;1.245410156E-1;9.787546692E0;9.788726700E0
4.197284458E0;9.355545044E-2;1.251397705E-1;9.795031128E0;9.796277221E0
4.207263458E0;1.068777466E-1;1.209484863E-1;9.784852295E0;9.786183415E0
4.217242458E0;9.834548950E-2;1.228944397E-1;9.787397003E0;9.788662573E0
4.227221458E0;9.789642334E-2;1.219963074E-1;9.796827393E0;9.798076024E0
4.237200458E0;9.624984741E-2;1.234931946E-1;9.797725525E0;9.798976480E0
4.247179458E0;8.786727905E-2;1.121168518E-1;9.785900116E0;9.786936800E0
4.257158458E0;9.265731812E-2;1.175056458E-1;9.791288910E0;9.792432357E0
4.267137458E0;9.909393311E-2;1.209484863E-1;9.787846069E0;9.789094893E0
4.277116458E0;9.445358276E-2;1.245410156E-1;9.775272217E0;9.776521818E0
4.287095458E0;8.352630615E-2;1.210981750E-1;9.777367859E0;9.778474506E0
4.297073458E0;9.026229858E-2;1.251397705E-1;9.796528015E0;9.797743026E0
4.307052458E0;9.759704590E-2;1.182540894E-1;9.803114319E0;9.804313314E0
4.317031458E0;9.175918579E-2;1.191522217E-1;9.799072723E0;9.800226693E0
4.327010458E0;9.370513916E-2;1.202000427E-1;9.793833618E0;9.795019430E0
4.336989458E0;9.565109253E-2;1.234931946E-1;9.757459259E0;9.758709489E0
4.346968458E0;8.412506104E-2;1.188528442E-1;9.774224396E0;9.775308975E0
4.356947458E0;8.562194824E-2;1.282832336E-1;9.793234863E0;9.794449285E0
4.366926458E0;9.954299927E-2;1.222956848E-1;9.799072723E0;9.800341386E0
4.376905458E0;8.337661743E-2;1.203497314E-1;9.803862762E0;9.804955930E0
4.386884458E0;8.562194824E-2;1.210981750E-1;9.792935486E0;9.794058470E0
4.396863458E0;1.004411316E-1;1.160087585E-1;9.779613190E0;9.780816970E0
4.406841458E0;8.861572266E-2;1.210981750E-1;9.772727509E0;9.773879499E0
4.416820458E0;9.310638428E-2;1.224453735E-1;9.781259766E0;9.782469232E0
4.426799458E0;9.385482788E-2;1.184037781E-1;9.797426147E0;9.798591087E0
4.436778458E0;8.846603394E-2;1.270857239E-1;9.805808716E0;9.807031232E0
4.446757458E0;9.939331055E-2;1.152603149E-1;9.804311829E0;9.805493073E0
4.456736458E0;1.067280579E-1;1.224453735E-1;9.785001984E0;9.786350064E0
4.466715458E0;9.804611206E-2;1.131646729E-1;9.781559143E0;9.782705073E0
4.476694458E0;9.595046997E-2;1.209484863E-1;9.786199493E0;9.787417205E0
4.486673458E0;9.729766846E-2;1.184037781E-1;9.795330505E0;9.796529283E0
4.496652458E0;9.385482788E-2;1.169068909E-1;9.803114319E0;9.804260620E0
4.506631458E0;9.774673462E-2;1.178050232E-1;9.788145447E0;9.789342355E0
4.516609458E0;9.056167603E-2;1.179547119E-1;9.795330505E0;9.796459281E0
4.526588458E0;8.801696777E-2;1.073268127E-1;9.784702606E0;9.785687054E0
4.536567458E0;9.699829102E-2;1.196012878E-1;9.778864746E0;9.780077140E0
4.546546458E0;9.445358276E-2;1.197509766E-1;9.793234863E0;9.794422436E0
4.556525458E0;9.849517822E-2;1.255888367E-1;9.799821167E0;9.801120791E0
4.566504458E0;9.116043091E-2;1.197509766E-1;9.782606964E0;9.783764589E0
4.576483458E0;1.020877075E-1;1.209484863E-1;9.790390778E0;9.791670032E0
4.586462458E0;9.355545044E-2;1.225950623E-1;9.792336731E0;9.793550981E0
4.596441458E0;9.535171509E-2;1.288819885E-1;9.782008209E0;9.783321886E0
4.606420458E0;9.684860229E-2;1.294807434E-1;9.792037354E0;9.793372271E0
4.616399458E0;1.101708984E-1;1.261875916E-1;9.783355408E0;9.784789419E0
4.626377458E0;9.924362183E-2;1.231938171E-1;9.792187042E0;9.793464815E0
4.636356458E0;9.460327148E-2;1.252894592E-1;9.797725525E0;9.798983248E0
4.646335458E0;1.098715210E-1;1.278341675E-1;9.798473969E0;9.799923746E0
4.656314458E0;9.789642334E-2;1.215472412E-1;9.782606964E0;9.783851821E0
4.666293458E0;9.624984741E-2;1.136137390E-1;9.771080933E0;9.772215445E0
4.676272458E0;9.370513916E-2;1.233435059E-1;9.787247314E0;9.788473030E0
4.686251458E0;9.654922485E-2;1.187031555E-1;9.797725525E0;9.798920229E0
4.696230458E0;9.235794067E-2;1.224453735E-1;9.786798248E0;9.787999939E0
4.706209458E0;9.205856323E-2;1.179547119E-1;9.790540466E0;9.791683753E0
4.716188750E0;9.280700684E-2;1.158590698E-1;9.777966614E0;9.779093392E0
4.726167750E0;9.969268799E-2;1.213975525E-1;9.787546692E0;9.788807192E0
4.736145750E0;9.265731812E-2;1.173559570E-1;9.786199493E0;9.787341739E0
4.746124750E0;9.714797974E-2;1.257385254E-1;9.782157898E0;9.783448321E0
4.756103750E0;9.984237671E-2;1.176553345E-1;9.788744202E0;9.789960384E0
4.766082750E0;8.592132568E-2;1.254391479E-1;9.789642334E0;9.790822973E0
4.776061750E0;9.624984741E-2;1.264869690E-1;9.778864746E0;9.780156374E0
4.786040750E0;9.939331055E-2;1.185534668E-1;9.791139221E0;9.792361370E0
4.796019750E0;9.310638428E-2;1.194515991E-1;9.791737976E0;9.792909173E0
4.805998750E0;9.759704590E-2;1.251397705E-1;9.799671478E0;9.800956394E0
4.815977750E0;9.220825195E-2;1.206491089E-1;9.778864746E0;9.780043675E0
4.825956750E0;9.340576172E-2;1.272354126E-1;9.781409454E0;9.782682884E0
4.835935750E0;9.250762939E-2;1.218466187E-1;9.795779572E0;9.796974108E0
4.845913750E0;9.774673462E-2;1.200503540E-1;9.796827393E0;9.798050493E0
4.855892750E0;9.041198730E-2;1.200503540E-1;9.800719299E0;9.801871515E0
4.865871750E0;9.610015869E-2;1.207987976E-1;9.787995758E0;9.789212867E0
4.875850750E0;9.624984741E-2;1.199006653E-1;9.778864746E0;9.780073411E0
4.885829750E0;8.427474976E-2;1.184037781E-1;9.793833618E0;9.794911874E0
4.895808750E0;8.996292114E-2;1.254391479E-1;9.796528015E0;9.797744100E0
4.905787750E0;9.789642334E-2;1.230441284E-1;9.787097626E0;9.788360614E0
4.915766750E0;9.340576172E-2;1.166075134E-1;9.769584045E0;9.770726399E0
4.925745750E0;1.019380188E-1;1.252894592E-1;9.771380310E0;9.772715179E0
4.935724750E0;9.939331055E-2;1.173559570E-1;9.788444824E0;9.789652881E0
4.945703750E0;8.681945801E-2;1.218466187E-1;9.787846069E0;9.788989473E0
4.955681750E0;9.550140381E-2;1.227447510E-1;9.789941711E0;9.791176921E0
4.965660750E0;9.190887451E-2;1.221459961E-1;9.783205719E0;9.784399881E0
4.975639750E0;9.400451660E-2;1.239422607E-1;9.786648560E0;9.787884785E0
4.985618750E0;9.669891357E-2;1.240919495E-1;9.783056030E0;9.784320865E0
4.995597750E0;9.610015869E-2;1.230441284E-1;9.797875214E0;9.799119032E0
5.005576750E0;9.654922485E-2;1.267863464E-1;9.785750427E0;9.787047969E0
5.015555750E0;9.131011963E-2;1.191522217E-1;9.781708832E0;9.782860648E0
5.025534750E0;9.026229858E-2;1.175056458E-1;9.779463501E0;9.780585935E0
5.035513750E0;9.879455566E-2;1.113684082E-1;9.787995758E0;9.789127859E0
5.045492750E0;9.639953613E-2;1.163081360E-1;9.793683929E0;9.794848920E0
5.055471750E0;9.580078125E-2;1.273851013E-1;9.802515564E0;9.803811307E0
5.065449750E0;1.025367737E-1;1.236428833E-1;9.798324280E0;9.799640812E0
5.075428750E0;9.939331055E-2;1.193019104E-1;9.786798248E0;9.788030033E0
5.085407750E0;9.505233765E-2;1.261875916E-1;9.772428131E0;9.773705021E0
5.095386750E0;9.355545044E-2;1.233435059E-1;9.790839844E0;9.792063679E0
5.105365750E0;9.280700684E-2;1.176553345E-1;9.793833618E0;9.794979983E0
5.115344750E0;9.280700684E-2;1.221459961E-1;9.787696381E0;9.788898468E0
5.125323750E0;8.816665649E-2;1.146615601E-1;9.798773346E0;9.799840801E0
5.135302750E0;1.010398865E-1;1.204994202E-1;9.788594513E0;9.789857594E0
5.145281750E0;9.535171509E-2;1.221459961E-1;9.783056030E0;9.784283156E0
5.155260750E0;9.580078125E-2;1.237925720E-1;9.782307587E0;9.783559889E0
5.165239750E0;9.565109253E-2;1.191522217E-1;9.777517548E0;9.778711356E0
5.175217750E0;9.639953613E-2;1.193019104E-1;9.782756653E0;9.783958991E0
5.185196750E0;9.460327148E-2;1.207987976E-1;9.791288910E0;9.792491034E0
5.195175750E0;1.031355286E-1;1.146615601E-1;9.788744202E0;9.789959002E0
5.205154750E0;9.445358276E-2;1.209484863E-1;9.789941711E0;9.791144403E0
5.215133750E0;9.819580078E-2;1.172062683E-1;9.787696381E0;9.788890650E0
5.225112750E0;9.714797974E-2;1.194515991E-1;9.787397003E0;9.788607997E0
5.235091750E0;9.804611206E-2;1.155596924E-1;9.792935486E0;9.794108051E0
5.245070750E0;9.131011963E-2;1.163081360E-1;9.792486420E0;9.793602779E0
5.255049750E0;9.520202637E-2;1.276844788E-1;9.792037354E0;9.793332542E0
5.265028750E0;9.250762939E-2;1.257385254E-1;9.782606964E0;9.783852352E0
5.275007750E0;9.759704590E-2;1.212478638E-1;9.784852295E0;9.786090162E0
5.284985750E0;1.013392639E-1;1.285826111E-1;9.785900116E0;9.787269497E0
5.294964750E0;9.864486694E-2;1.242416382E-1;9.794881439E0;9.796166046E0
5.304943750E0;1.047821045E-1;1.215472412E-1;9.796977081E0;9.798291328E0
5.314922750E0;9.624984741E-2;1.152603149E-1;9.790540466E0;9.791691968E0
5.324901750E0;9.729766846E-2;1.190025330E-1;9.786349182E0;9.787556322E0
5.334880750E0;9.385482788E-2;1.204994202E-1;9.788444824E0;9.789636404E0
5.344859750E0;9.849517822E-2;1.252894592E-1;9.796528015E0;9.797824243E0
5.354838750E0;9.729766846E-2;1.242416382E-1;9.776469727E0;9.777743254E0
5.364817750E0;9.879455566E-2;1.216969299E-1;9.785301361E0;9.786556761E0
5.374796750E0;9.550140381E-2;1.228944397E-1;9.783205719E0;9.784443658E0
5.384775750E0;9.340576172E-2;1.175056458E-1;9.783355408E0;9.784506898E0
5.394753750E0;9.894424438E-2;1.219963074E-1;9.779613190E0;9.780874562E0
5.404732750E0;9.145980835E-2;1.175056458E-1;9.791887665E0;9.793019785E0
5.414711750E0;9.595046997E-2;1.260379028E-1;9.789342957E0;9.790624473E0
5.424690750E0;9.295669556E-2;1.221459961E-1;9.784702606E0;9.785906482E0
5.434669750E0;8.846603394E-2;1.281335449E-1;9.785600739E0;9.786839442E0
5.444648750E0;9.624984741E-2;1.155596924E-1;9.795031128E0;9.796185629E0
5.454627750E0;9.999206543E-2;1.185534668E-1;9.799521790E0;9.800748984E0
5.464606750E0;9.145980835E-2;1.255888367E-1;9.786049805E0;9.787282985E0
5.474585750E0;9.654922485E-2;1.179547119E-1;9.787097626E0;9.788284579E0
5.484564750E0;9.849517822E-2;1.264869690E-1;9.790989532E0;9.792301889E0
5.494543750E0;9.699829102E-2;1.218466187E-1;9.787546692E0;9.788785702E0
5.504522750E0;9.220825195E-2;1.269360352E-1;9.783954163E0;9.785212015E0
5.514500750E0;9.280700684E-2;1.185534668E-1;9.786049805E0;9.787207919E0
5.524479750E0;9.639953613E-2;1.163081360E-1;9.778864746E0;9.780031502E0
5.534458750E0;9.714797974E-2;1.294807434E-1;9.791887665E0;9.793225568E0
5.544437750E0;9.924362183E-2;1.246907043E-1;9.792935486E0;9.794232104E0
5.554416750E0;1.026864624E-1;1.199006653E-1;9.793534241E0;9.794806461E0
5.564395750E0;9.145980835E-2;1.170565796E-1;9.797725525E0;9.798851596E0
5.574374750E0;1.035845947E-1;1.245410156E-1;9.777667236E0;9.779008990E0
5.584353750E0;1.020877075E-1;1.263372803E-1;9.780810699E0;9.782159319E0
5.594332750E0;9.684860229E-2;1.245410156E-1;9.796977081E0;9.798247295E0
5.604311750E0;9.145980835E-2;1.224453735E-1;9.782307587E0;9.783501392E0
5.614289750E0;9.086105347E-2;1.176553345E-1;9.789043579E0;9.790172251E0
5.624268750E0;8.607101440E-2;1.267863464E-1;9.776320038E0;9.777520978E0
5.634247750E0;9.056167603E-2;1.269360352E-1;9.774074707E0;9.775318437E0
5.644226750E0;9.415420532E-2;1.175056458E-1;9.795629883E0;9.796787095E0
5.654205750E0;9.415420532E-2;1.182540894E-1;9.809251556E0;9.810416155E0
5.664184750E0;9.400451660E-2;1.164578247E-1;9.801767120E0;9.802909668E0
5.674163750E0;8.831634521E-2;1.188528442E-1;9.773026886E0;9.774148571E0
5.684142750E0;9.101074219E-2;1.172062683E-1;9.771380310E0;9.772507019E0
5.694121750E0;8.831634521E-2;1.185534668E-1;9.779912567E0;9.781029829E0
5.704100750E0;9.684860229E-2;1.196012878E-1;9.789043579E0;9.790253230E0
5.714079708E0;9.714797974E-2;1.257385254E-1;9.791737976E0;9.793027137E0
5.724057708E0;9.280700684E-2;1.194515991E-1;9.785750427E0;9.786919497E0
5.734036708E0;9.490264893E-2;1.182540894E-1;9.787546692E0;9.788721101E0
5.744015708E0;9.430389404E-2;1.227447510E-1;9.786199493E0;9.787423564E0
5.753994708E0;9.280700684E-2;1.237925720E-1;9.780810699E0;9.782034332E0
5.763973708E0;8.801696777E-2;1.242416382E-1;9.778265991E0;9.779451353E0
5.773952708E0;9.086105347E-2;1.137634277E-1;9.787397003E0;9.788479859E0
5.783931708E0;8.981323242E-2;1.188528442E-1;9.807754669E0;9.808885975E0
5.793910708E0;9.145980835E-2;1.225950623E-1;9.813293152E0;9.814485057E0
5.803889708E0;9.565109253E-2;1.245410156E-1;9.782457275E0;9.783717593E0
5.813868708E0;9.340576172E-2;1.182540894E-1;9.777367859E0;9.778529077E0
5.823847708E0;8.936416626E-2;1.166075134E-1;9.774523773E0;9.775627768E0
5.833825708E0;9.101074219E-2;1.231938171E-1;9.776469727E0;9.777669456E0
5.843804708E0;9.565109253E-2;1.172062683E-1;9.786049805E0;9.787219075E0
5.853783708E0;1.035845947E-1;1.191522217E-1;9.795629883E0;9.796902154E0
5.863762708E0;1.013392639E-1;1.231938171E-1;9.790690155E0;9.791989587E0
5.873741708E0;1.056802368E-1;1.272354126E-1;9.775421906E0;9.776821088E0
5.883720708E0;8.801696777E-2;1.272354126E-1;9.779463501E0;9.780687205E0
5.893699708E0;9.475296021E-2;1.225950623E-1;9.787846069E0;9.789072395E0
5.903678708E0;9.714797974E-2;1.251397705E-1;9.802665253E0;9.803945315E0
5.913657708E0;9.774673462E-2;1.203497314E-1;9.790390778E0;9.791618358E0
5.923636708E0;9.101074219E-2;1.228944397E-1;9.785151672E0;9.786346573E0
5.933615708E0;9.610015869E-2;1.200503540E-1;9.781110077E0;9.782318829E0
5.943593708E0;9.145980835E-2;1.191522217E-1;9.775272217E0;9.776426191E0
5.953572708E0;9.460327148E-2;1.230441284E-1;9.784403229E0;9.785634174E0
5.963551708E0;8.771759033E-2;1.158590698E-1;9.778265991E0;9.779345760E0
5.973530708E0;9.086105347E-2;1.184037781E-1;9.793833618E0;9.794970757E0
5.983509708E0;8.936416626E-2;1.206491089E-1;9.793234863E0;9.794385700E0
5.993488708E0;9.729766846E-2;1.255888367E-1;9.791887665E0;9.793176371E0
6.003467708E0;9.624984741E-2;1.185534668E-1;9.787097626E0;9.788288864E0
6.013446708E0;1.020877075E-1;1.170565796E-1;9.776619415E0;9.777853105E0
6.023425708E0;9.699829102E-2;1.197509766E-1;9.792486420E0;9.793698956E0
6.033404708E0;9.295669556E-2;1.136137390E-1;9.795629883E0;9.796729752E0
6.043383708E0;9.340576172E-2;1.203497314E-1;9.797126770E0;9.798311163E0
6.053361708E0;9.834548950E-2;1.206491089E-1;9.787546692E0;9.788784311E0
6.063340708E0;9.550140381E-2;1.209484863E-1;9.784702606E0;9.785916112E0
6.073319708E0;9.205856323E-2;1.167572021E-1;9.780511322E0;9.781641414E0
6.083298708E0;8.861572266E-2;1.113684082E-1;9.794881439E0;9.795915377E0
6.093277708E0;9.041198730E-2;1.178050232E-1;9.789792023E0;9.790918251E0
6.103256708E0;9.116043091E-2;1.197509766E-1;9.799970856E0;9.801126430E0
6.113235708E0;9.235794067E-2;1.218466187E-1;9.779762878E0;9.780957956E0
6.123214708E0;9.624984741E-2;1.216969299E-1;9.783654785E0;9.784885034E0
6.133193708E0;9.849517822E-2;1.176553345E-1;9.775272217E0;9.776476410E0
6.143172708E0;1.008901978E-1;1.227447510E-1;9.779463501E0;9.780754136E0
6.153151708E0;8.846603394E-2;1.194515991E-1;9.777517548E0;9.778647366E0
6.163129708E0;9.490264893E-2;1.202000427E-1;9.792336731E0;9.793534256E0
6.173108708E0;9.175918579E-2;1.164578247E-1;9.794432373E0;9.795554486E0
6.183087708E0;9.101074219E-2;1.252894592E-1;9.787696381E0;9.788921332E0
6.193066708E0;8.981323242E-2;1.182540894E-1;9.792336731E0;9.793462569E0
6.203045708E0;9.759704590E-2;1.219963074E-1;9.789193268E0;9.790439884E0
6.213024708E0;9.235794067E-2;1.213975525E-1;9.779613190E0;9.780802702E0
6.223003708E0;9.714797974E-2;1.225950623E-1;9.784253540E0;9.785503800E0
6.232982708E0;9.595046997E-2;1.190025330E-1;9.791288910E0;9.792482148E0
6.242961708E0;9.265731812E-2;1.164578247E-1;9.788744202E0;9.789875426E0
6.252940708E0;9.175918579E-2;1.239422607E-1;9.788594513E0;9.789809190E0
6.262919708E0;9.789642334E-2;1.209484863E-1;9.782457275E0;9.783694731E0
6.272897708E0;9.984237671E-2;1.194515991E-1;9.774224396E0;9.775464169E0
6.282876708E0;9.490264893E-2;1.213975525E-1;9.795330505E0;9.796542430E0
6.292855708E0;1.014889526E-1;1.290316772E-1;9.785900116E0;9.787276958E0
6.302834708E0;9.699829102E-2;1.182540894E-1;9.788744202E0;9.789939006E0
6.312813708E0;9.999206543E-2;1.212478638E-1;9.788744202E0;9.790005746E0
6.322792708E0;9.714797974E-2;1.210981750E-1;9.790839844E0;9.792070636E0
6.332771708E0;9.699829102E-2;1.215472412E-1;9.795779572E0;9.797013821E0
6.342750708E0;9.295669556E-2;1.199006653E-1;9.799821167E0;9.800995461E0
6.352729708E0;9.041198730E-2;1.193019104E-1;9.793534241E0;9.794678157E0
6.362708708E0;9.445358276E-2;1.255888367E-1;9.783205719E0;9.784467700E0
6.372687708E0;9.101074219E-2;1.160087585E-1;9.788744202E0;9.789854648E0
6.382665708E0;9.280700684E-2;1.216969299E-1;9.785900116E0;9.787096830E0
6.392644708E0;9.490264893E-2;1.200503540E-1;9.791139221E0;9.792335056E0
6.402623708E0;9.849517822E-2;1.190025330E-1;9.786349182E0;9.787568300E0
6.412602708E0;8.996292114E-2;1.216969299E-1;9.780661011E0;9.781831796E0
6.422581708E0;9.490264893E-2;1.181044006E-1;9.785900116E0;9.787072915E0
6.432560708E0;8.861572266E-2;1.221459961E-1;9.787247314E0;9.788410616E0
6.442539708E0;8.951385498E-2;1.230441284E-1;9.789492645E0;9.790675096E0
6.452518708E0;9.325607300E-2;1.210981750E-1;9.785600739E0;9.786794331E0
6.462497708E0;8.547225952E-2;1.155596924E-1;9.779313812E0;9.780370044E0
6.472476708E0;8.921447754E-2;1.219963074E-1;9.788145447E0;9.789312213E0
6.482455708E0;9.175918579E-2;1.303788757E-1;9.788444824E0;9.789743126E0
6.492433708E0;9.175918579E-2;1.303788757E-1;9.795180817E0;9.796478226E0
6.502412708E0;9.475296021E-2;1.248403931E-1;9.792935486E0;9.794189537E0
6.512391708E0;9.310638428E-2;1.218466187E-1;9.790091400E0;9.791292306E0
6.522370708E0;9.714797974E-2;1.169068909E-1;9.785001984E0;9.786182543E0
6.532349708E0;9.864486694E-2;1.240919495E-1;9.790241089E0;9.791524406E0
6.542328708E0;8.876541138E-2;1.169068909E-1;9.793234863E0;9.794334873E0
6.552307708E0;9.116043091E-2;1.248403931E-1;9.784552917E0;9.785773916E0
6.562286708E0;9.834548950E-2;1.216969299E-1;9.781259766E0;9.782511159E0
6.572265708E0;9.175918579E-2;1.212478638E-1;9.783355408E0;9.784536976E0
6.582244708E0;9.729766846E-2;1.209484863E-1;9.788893890E0;9.790124564E0
6.592222708E0;9.714797974E-2;1.207987976E-1;9.795480194E0;9.796706707E0
6.602201708E0;9.505233765E-2;1.176553345E-1;9.796977081E0;9.798144603E0
6.612180708E0;9.565109253E-2;1.276844788E-1;9.781559143E0;9.782860100E0
6.622159708E0;1.023870850E-1;1.252894592E-1;9.789342957E0;9.790680062E0
6.632138708E0;9.624984741E-2;1.191522217E-1;9.791139221E0;9.792337236E0
6.642117708E0;1.017883301E-1;1.230441284E-1;9.790690155E0;9.791992363E0
6.652096708E0;9.415420532E-2;1.258882141E-1;9.796528015E0;9.797789241E0
6.662075708E0;9.310638428E-2;1.224453735E-1;9.794282684E0;9.795490543E0
6.672054708E0;8.756790161E-2;1.230441284E-1;9.785301361E0;9.786466713E0
6.682033708E0;9.101074219E-2;1.225950623E-1;9.783355408E0;9.784546772E0
6.692012708E0;9.984237671E-2;1.230441284E-1;9.791887665E0;9.793169681E0
6.701991708E0;1.008901978E-1;1.237925720E-1;9.796378326E0;9.797679917E0
6.711970000E0;8.981323242E-2;1.118174744E-1;9.794132996E0;9.795183036E0
6.721949000E0;9.205856323E-2;1.202000427E-1;9.776918793E0;9.778091016E0
6.731928000E0;9.789642334E-2;1.254391479E-1;9.786947937E0;9.788241344E0
6.741907000E0;8.607101440E-2;1.210981750E-1;9.792037354E0;9.793164377E0
6.751886000E0;9.610015869E-2;1.236428833E-1;9.793983307E0;9.795235159E0
6.761865000E0;1.007405090E-1;1.197509766E-1;9.783205719E0;9.784457220E0
6.771844000E0;9.355545044E-2;1.176553345E-1;9.776769104E0;9.777924602E0
6.781823000E0;9.160949707E-2;1.196012878E-1;9.780960388E0;9.782120572E0
6.791802000E0;9.400451660E-2;1.225950623E-1;9.789792023E0;9.791010890E0
6.801781000E0;8.966354370E-2;1.215472412E-1;9.795629883E0;9.796794276E0
6.811759000E0;9.759704590E-2;1.263372803E-1;9.791438599E0;9.792739970E0
6.821738000E0;9.954299927E-2;1.182540894E-1;9.800120544E0;9.801339476E0
6.831717000E0;9.954299927E-2;1.255888367E-1;9.780661011E0;9.781973787E0
6.841696000E0;9.699829102E-2;1.257385254E-1;9.784552917E0;9.785841540E0
6.851675000E0;9.460327148E-2;1.167572021E-1;9.792037354E0;9.793190367E0
6.861654000E0;1.004411316E-1;1.216969299E-1;9.789642334E0;9.790913930E0
6.871633000E0;9.490264893E-2;1.243913269E-1;9.785001984E0;9.786252783E0
6.881612000E0;9.250762939E-2;1.236428833E-1;9.783954163E0;9.785172675E0
6.891591000E0;9.205856323E-2;1.167572021E-1;9.795330505E0;9.796458887E0
6.901570000E0;9.879455566E-2;1.224453735E-1;9.799222412E0;9.800485351E0
6.911549000E0;9.475296021E-2;1.115180969E-1;9.788744202E0;9.789837969E0
6.921527000E0;9.595046997E-2;1.182540894E-1;9.782307587E0;9.783492845E0
6.931506000E0;9.595046997E-2;1.219963074E-1;9.797875214E0;9.799104464E0
6.941485000E0;1.002914429E-1;1.224453735E-1;9.786947937E0;9.788227683E0
6.951464000E0;9.325607300E-2;1.227447510E-1;9.788444824E0;9.789658577E0
6.961443000E0;9.879455566E-2;1.204994202E-1;9.789193268E0;9.790433357E0
6.971422000E0;9.684860229E-2;1.218466187E-1;9.789941711E0;9.791178936E0
6.981401000E0;9.819580078E-2;1.239422607E-1;9.784253540E0;9.785531229E0
6.991380000E0;9.101074219E-2;1.240919495E-1;9.789492645E0;9.790702121E0
7.001359000E0;8.831634521E-2;1.212478638E-1;9.790839844E0;9.791988851E0
7.011338000E0;9.909393311E-2;1.240919495E-1;9.789193268E0;9.790481258E0
7.021317000E0;9.909393311E-2;1.282832336E-1;9.784702606E0;9.786045232E0
7.031296000E0;9.250762939E-2;1.227447510E-1;9.791588287E0;9.792794551E0
7.041274000E0;9.654922485E-2;1.228944397E-1;9.790241089E0;9.791488415E0
7.051253000E0;9.565109253E-2;1.243913269E-1;9.782756653E0;9.784015028E0
7.061232000E0;9.939331055E-2;1.224453735E-1;9.789342957E0;9.790613230E0
7.071211000E0;9.774673462E-2;1.194515991E-1;9.789941711E0;9.791158349E0
7.081190000E0;9.460327148E-2;1.243913269E-1;9.791139221E0;9.792386340E0
7.091169000E0;9.220825195E-2;1.175056458E-1;9.782457275E0;9.783597512E0
7.101148000E0;8.981323242E-2;1.127156067E-1;9.783654785E0;9.784716254E0
7.111127000E0;9.205856323E-2;1.175056458E-1;9.778265991E0;9.779405307E0
7.121106000E0;1.007405090E-1;1.221459961E-1;9.788295135E0;9.789575576E0
7.131085000E0;1.004411316E-1;1.187031555E-1;9.793534241E0;9.794768593E0
7.141064000E0;9.520202637E-2;1.240919495E-1;9.797875214E0;9.799123478E0
7.151042000E0;9.355545044E-2;1.242416382E-1;9.780062256E0;9.781298806E0
7.161021000E0;8.966354370E-2;1.199006653E-1;9.776170349E0;9.777316729E0
7.171000000E0;9.056167603E-2;1.203497314E-1;9.780211945E0;9.781371640E0
7.180979000E0;9.535171509E-2;1.190025330E-1;9.793085175E0;9.794272346E0
7.190958000E0;9.056167603E-2;1.079255676E-1;9.798174591E0;9.799187449E0
7.200937000E0;9.056167603E-2;1.207987976E-1;9.796677704E0;9.797840976E0
7.210916000E0;9.699829102E-2;1.193019104E-1;9.778415680E0;9.779624473E0
7.220895000E0;9.789642334E-2;1.193019104E-1;9.767488403E0;9.768707507E0
7.230874000E0;9.370513916E-2;1.193019104E-1;9.791139221E0;9.792314376E0
7.240853000E0;9.340576172E-2;1.225950623E-1;9.798324280E0;9.799536360E0
7.250832000E0;9.175918579E-2;1.269360352E-1;9.793683929E0;9.794936315E0
7.260810000E0;9.056167603E-2;1.216969299E-1;9.765542450E0;9.766720581E0
7.270789000E0;9.430389404E-2;1.193019104E-1;9.770482178E0;9.771665577E0
7.280768000E0;9.669891357E-2;1.257385254E-1;9.795480194E0;9.796764419E0
7.290747000E0;9.235794067E-2;1.251397705E-1;9.808652802E0;9.809885816E0
7.300726000E0;8.861572266E-2;1.215472412E-1;9.794132996E0;9.795288031E0
7.310705000E0;9.849517822E-2;1.266366577E-1;9.775272217E0;9.776588621E0
7.320684000E0;1.062789917E-1;1.339714050E-1;9.779014435E0;9.780509541E0
7.330663000E0;9.011260986E-2;1.236428833E-1;9.784253540E0;9.785449667E0
7.340642000E0;9.205856323E-2;1.224453735E-1;9.788893890E0;9.790092504E0
7.350621000E0;9.595046997E-2;1.179547119E-1;9.799821167E0;9.801000700E0
7.360599000E0;9.490264893E-2;1.221459961E-1;9.796827393E0;9.798048434E0
7.370578000E0;9.475296021E-2;1.202000427E-1;9.772577820E0;9.773776313E0
7.380557000E0;9.460327148E-2;1.222956848E-1;9.767488403E0;9.768712081E0
7.390536000E0;1.020877075E-1;1.224453735E-1;9.787696381E0;9.788994596E0
7.400515000E0;9.789642334E-2;1.191522217E-1;9.799372101E0;9.800585418E0
7.410494000E0;1.019380188E-1;1.242416382E-1;9.801168365E0;9.802485841E0
7.420473000E0;1.008901978E-1;1.190025330E-1;9.795031128E0;9.796273538E0
7.430452000E0;9.265731812E-2;1.263372803E-1;9.800719299E0;9.801971499E0
7.440431000E0;8.876541138E-2;1.233435059E-1;9.776170349E0;9.777351360E0
7.450410000E0;9.924362183E-2;1.243913269E-1;9.771829376E0;9.773124979E0
7.460389000E0;9.235794067E-2;1.246907043E-1;9.794132996E0;9.795362112E0
7.470367000E0;9.520202637E-2;1.179547119E-1;9.796827393E0;9.797999985E0
7.480346000E0;9.864486694E-2;1.203497314E-1;9.793085175E0;9.794321421E0
7.490325000E0;9.460327148E-2;1.143621826E-1;9.790390778E0;9.791515719E0
7.500304000E0;8.936416626E-2;1.149609375E-1;9.783654785E0;9.784738266E0
7.510283000E0;9.624984741E-2;1.206491089E-1;9.792037354E0;9.793253585E0
7.520262000E0;9.131011963E-2;1.245410156E-1;9.786798248E0;9.788016549E0
7.530241000E0;9.999206543E-2;1.219963074E-1;9.771679688E0;9.772952749E0
7.540220000E0;9.026229858E-2;1.257385254E-1;9.784403229E0;9.785627420E0
7.550199000E0;9.355545044E-2;1.196012878E-1;9.787546692E0;9.788724500E0
7.560178000E0;9.116043091E-2;1.215472412E-1;9.790390778E0;9.791569615E0
7.570157000E0;9.385482788E-2;1.196012878E-1;9.782157898E0;9.783339222E0
7.580135000E0;9.041198730E-2;1.273851013E-1;9.796228638E0;9.797474002E0
7.590114000E0;9.190887451E-2;1.279838562E-1;9.784253540E0;9.785522186E0
7.600093000E0;9.969268799E-2;1.225950623E-1;9.774523773E0;9.775800897E0
7.610072000E0;9.864486694E-2;1.187031555E-1;9.785301361E0;9.786518481E0
7.620051000E0;9.400451660E-2;1.257385254E-1;9.783654785E0;9.784914306E0
7.630030000E0;9.280700684E-2;1.207987976E-1;9.788444824E0;9.789630104E0
7.640009000E0;9.535171509E-2;1.146615601E-1;9.787546692E0;9.788682724E0
7.649988000E0;9.445358276E-2;1.240919495E-1;9.792785797E0;9.794027464E0
7.659967000E0;1.002914429E-1;1.209484863E-1;9.782756653E0;9.784018328E0
7.669946000E0;9.385482788E-2;1.210981750E-1;9.776020660E0;9.777221152E0
7.679925000E0;1.002914429E-1;1.173559570E-1;9.783654785E0;9.784872597E0
7.689903000E0;9.220825195E-2;1.225950623E-1;9.791588287E0;9.792789853E0
7.699882000E0;9.265731812E-2;1.231938171E-1;9.785900116E0;9.787114139E0
7.709860333E0;9.849517822E-2;1.233435059E-1;9.768236847E0;9.769512067E0
7.719839333E0;9.789642334E-2;1.254391479E-1;9.803264008E0;9.804555262E0
7.729818333E0;9.175918579E-2;1.203497314E-1;9.790091400E0;9.791261075E0
7.739797333E0;8.846603394E-2;1.176553345E-1;9.792037354E0;9.793143752E0
7.749776333E0;9.041198730E-2;1.176553345E-1;9.782756653E0;9.783881890E0
7.759755333E0;8.801696777E-2;1.200503540E-1;9.776320038E0;9.777453276E0
7.769734333E0;9.699829102E-2;1.179547119E-1;9.789342957E0;9.790534077E0
7.779713333E0;9.490264893E-2;1.236428833E-1;9.789043579E0;9.790284381E0
7.789692333E0;9.699829102E-2;1.169068909E-1;9.797875214E0;9.799052739E0
7.799670333E0;9.879455566E-2;1.200503540E-1;9.788444824E0;9.789679491E0
7.809649333E0;9.460327148E-2;1.207987976E-1;9.787696381E0;9.788898946E0
7.819628333E0;9.160949707E-2;1.166075134E-1;9.773925018E0;9.775049866E0
7.829607333E0;9.445358276E-2;1.216969299E-1;9.795180817E0;9.796392135E0
7.839586333E0;9.729766846E-2;1.179547119E-1;9.795779572E0;9.796972878E0
7.849565333E0;9.804611206E-2;1.209484863E-1;9.787846069E0;9.789084342E0
7.859544333E0;9.864486694E-2;1.187031555E-1;9.787846069E0;9.789062873E0
7.869523333E0;9.430389404E-2;1.170565796E-1;9.787247314E0;9.788401578E0
7.879502333E0;1.002914429E-1;1.255888367E-1;9.787846069E0;9.789165521E0
7.889481333E0;1.010398865E-1;1.243913269E-1;9.791288910E0;9.792600307E0
7.899460333E0;9.430389404E-2;1.172062683E-1;9.790839844E0;9.791995475E0
7.909438333E0;9.490264893E-2;1.219963074E-1;9.789642334E0;9.790862405E0
7.919417333E0;9.250762939E-2;1.152603149E-1;9.778415680E0;9.779532495E0
7.929396333E0;9.505233765E-2;1.193019104E-1;9.791588287E0;9.792776372E0
7.939375333E0;9.984237671E-2;1.203497314E-1;9.790540466E0;9.791789172E0
7.949354333E0;9.340576172E-2;1.239422607E-1;9.777068481E0;9.778300180E0
7.959333333E0;9.535171509E-2;1.210981750E-1;9.775721283E0;9.776936295E0
7.969312333E0;9.744735718E-2;1.261875916E-1;9.790690155E0;9.791988205E0
7.979291333E0;9.280700684E-2;1.133143616E-1;9.792336731E0;9.793432082E0
7.989270333E0;9.265731812E-2;1.149609375E-1;9.802665253E0;9.803777203E0
7.999249333E0;1.008901978E-1;1.269360352E-1;9.788744202E0;9.790087060E0
8.009228333E0;9.939331055E-2;1.245410156E-1;9.788594513E0;9.789891319E0
8.019206333E0;1.025367737E-1;1.170565796E-1;9.781110077E0;9.782347897E0
8.029185333E0;9.490264893E-2;1.216969299E-1;9.778715057E0;9.779932762E0
8.039164333E0;9.550140381E-2;1.233435059E-1;9.787397003E0;9.788640061E0
8.049143333E0;9.400451660E-2;1.318757629E-1;9.796378326E0;9.797716896E0
8.059122333E0;9.789642334E-2;1.236428833E-1;9.791139221E0;9.792409230E0
8.069101333E0;9.894424438E-2;1.203497314E-1;9.779762878E0;9.781003833E0
8.079080333E0;9.445358276E-2;1.176553345E-1;9.793234863E0;9.794397038E0
8.089059333E0;8.786727905E-2;1.254391479E-1;9.786798248E0;9.787996505E0
8.099038333E0;9.565109253E-2;1.261875916E-1;9.790690155E0;9.791970494E0
8.109017333E0;9.175918579E-2;1.237925720E-1;9.792336731E0;9.793549050E0
8.118996333E0;8.681945801E-2;1.260379028E-1;9.786498871E0;9.787695506E0
8.128974333E0;8.831634521E-2;1.224453735E-1;9.782157898E0;9.783322840E0
8.138953333E0;9.744735718E-2;1.266366577E-1;9.795779572E0;9.797082742E0
8.148932333E0;9.310638428E-2;1.218466187E-1;9.786648560E0;9.787849888E0
8.158911333E0;1.065783691E-1;1.221459961E-1;9.778864746E0;9.780208296E0
8.168890333E0;9.759704590E-2;1.236428833E-1;9.777966614E0;9.779235341E0
8.178869333E0;9.235794067E-2;1.291813660E-1;9.790989532E0;9.792277255E0
8.188848333E0;9.116043091E-2;1.215472412E-1;9.793833618E0;9.795012042E0
8.198827333E0;9.834548950E-2;1.182540894E-1;9.782906342E0;9.784115308E0
8.208806333E0;1.067280579E-1;1.204994202E-1;9.787696381E0;9.789019942E0
8.218785333E0;9.056167603E-2;1.221459961E-1;9.786648560E0;9.787829744E0
8.228764333E0;9.175918579E-2;1.252894592E-1;9.786648560E0;9.787880630E0
8.238742333E0;9.804611206E-2;1.245410156E-1;9.791288910E0;9.792571778E0
8.248721333E0;9.654922485E-2;1.221459961E-1;9.787097626E0;9.788335984E0
8.258700333E0;9.460327148E-2;1.196012878E-1;9.786648560E0;9.787836547E0
8.268679333E0;9.804611206E-2;1.260379028E-1;9.796827393E0;9.798128676E0
8.278658333E0;9.610015869E-2;1.231938171E-1;9.789193268E0;9.790440071E0
8.288637333E0;9.086105347E-2;1.181044006E-1;9.792037354E0;9.793171086E0
8.298616333E0;9.729766846E-2;1.254391479E-1;9.783654785E0;9.784942655E0
8.308595333E0;1.065783691E-1;1.242416382E-1;9.782457275E0;9.783826720E0
8.318574333E0;9.175918579E-2;1.222956848E-1;9.775870972E0;9.777066494E0
8.328553333E0;9.011260986E-2;1.155596924E-1;9.787397003E0;9.788493981E0
8.338532333E0;9.669891357E-2;1.182540894E-1;9.790839844E0;9.792031432E0
8.348510333E0;1.013392639E-1;1.224453735E-1;9.793085175E0;9.794374904E0
8.358489333E0;1.008901978E-1;1.323248291E-1;9.785750427E0;9.787165070E0
8.368468333E0;9.490264893E-2;1.182540894E-1;9.783205719E0;9.784380649E0
8.378447333E0;9.280700684E-2;1.125659180E-1;9.782157898E0;9.783245748E0
8.388426333E0;9.894424438E-2;1.210981750E-1;9.790390778E0;9.791639613E0
8.398405333E0;9.729766846E-2;1.273851013E-1;9.783205719E0;9.784518789E0
8.408384333E0;9.714797974E-2;1.227447510E-1;9.788145447E0;9.789397085E0
8.418363333E0;8.966354370E-2;1.133143616E-1;9.789193268E0;9.790259676E0
8.428342333E0;9.744735718E-2;1.172062683E-1;9.784702606E0;9.785889760E0
8.438321333E0;9.041198730E-2;1.266366577E-1;9.789342957E0;9.790579487E0
8.448300333E0;9.295669556E-2;1.228944397E-1;9.784702606E0;9.785915853E0
8.458278333E0;9.355545044E-2;1.139131165E-1;9.781259766E0;9.782370440E0
8.468257333E0;8.906478882E-2;1.281335449E-1;9.786947937E0;9.788191900E0
8.478236333E0;9.550140381E-2;1.179547119E-1;9.799521790E0;9.800696972E0
8.488215333E0;9.235794067E-2;1.221459961E-1;9.788893890E0;9.790091584E0
8.498194333E0;9.624984741E-2;1.246907043E-1;9.784403229E0;9.785671073E0
8.508173333E0;1.010398865E-1;1.207987976E-1;9.784552917E0;9.785820211E0
8.518152333E0;9.684860229E-2;1.210981750E-1;9.787995758E0;9.789223942E0
8.528131333E0;1.032852173E-1;1.236428833E-1;9.789193268E0;9.790518895E0
8.538110333E0;9.505233765E-2;1.261875916E-1;9.783355408E0;9.784630871E0
8.548089333E0;9.535171509E-2;1.216969299E-1;9.765692139E0;9.766915841E0
8.558068333E0;9.041198730E-2;1.163081360E-1;9.798923035E0;9.800030334E0
8.568046333E0;8.921447754E-2;1.155596924E-1;9.815837860E0;9.816923457E0
8.578025333E0;9.610015869E-2;1.182540894E-1;9.834548950E0;9.835729374E0
8.588004333E0;8.951385498E-2;1.225950623E-1;9.771829376E0;9.773008321E0
8.597983333E0;1.025367737E-1;1.248403931E-1;9.738299103E0;9.739639025E0
8.607962333E0;1.011895752E-1;1.187031555E-1;9.771380310E0;9.772625181E0
8.617941333E0;9.729766846E-2;1.252894592E-1;9.801018677E0;9.802302351E0
8.627920333E0;9.639953613E-2;1.275347900E-1;9.837093658E0;9.838392635E0
8.637899333E0;9.714797974E-2;1.275347900E-1;9.806407471E0;9.807717896E0
8.647878333E0;9.804611206E-2;1.187031555E-1;9.773326263E0;9.774538850E0
8.657857333E0;9.669891357E-2;1.196012878E-1;9.754764862E0;9.755977279E0
8.667836333E0;9.325607300E-2;1.251397705E-1;9.778265991E0;9.779511361E0
8.677814333E0;9.415420532E-2;1.279838562E-1;9.795330505E0;9.796619039E0
8.687793333E0;9.669891357E-2;1.257385254E-1;9.815089417E0;9.816371076E0
8.697772333E0;9.175918579E-2;1.227447510E-1;9.793384552E0;9.794583554E0
8.707751333E0;1.016386414E-1;1.261875916E-1;9.773176575E0;9.774519634E0
8.717731250E0;9.789642334E-2;1.270857239E-1;9.770631866E0;9.771948708E0
8.727710250E0;8.906478882E-2;1.242416382E-1;9.791139221E0;9.792332499E0
8.737689250E0;9.145980835E-2;1.173559570E-1;9.794731750E0;9.795861748E0
8.747668250E0;9.101074219E-2;1.234931946E-1;9.791737976E0;9.792939605E0
8.757647250E0;9.415420532E-2;1.199006653E-1;9.777068481E0;9.778256965E0
8.767626250E0;9.639953613E-2;1.207987976E-1;9.767638092E0;9.768860687E0
8.777605250E0;9.355545044E-2;1.164578247E-1;9.787097626E0;9.788237583E0
8.787583250E0;9.550140381E-2;1.251397705E-1;9.799222412E0;9.800486741E0
8.797562250E0;8.726852417E-2;1.219963074E-1;9.796528015E0;9.797676257E0
8.807541250E0;9.834548950E-2;1.207987976E-1;9.793234863E0;9.794473609E0
8.817520250E0;8.711883545E-2;1.239422607E-1;9.774374084E0;9.775548073E0
8.827499250E0;9.654922485E-2;1.200503540E-1;9.777816925E0;9.779030507E0
8.837478250E0;8.966354370E-2;1.182540894E-1;9.794132996E0;9.795257256E0
8.847457250E0;9.879455566E-2;1.228944397E-1;9.797875214E0;9.799143948E0
8.857436250E0;9.669891357E-2;1.282832336E-1;9.796078949E0;9.797396085E0
8.867415250E0;9.400451660E-2;1.255888367E-1;9.781110077E0;9.782368003E0
8.877394250E0;9.714797974E-2;1.191522217E-1;9.777517548E0;9.778726112E0
8.887373250E0;9.310638428E-2;1.199006653E-1;9.784702606E0;9.785880137E0
8.897351250E0;9.714797974E-2;1.185534668E-1;9.797575836E0;9.798774664E0
8.907330250E0;9.849517822E-2;1.294807434E-1;9.808054047E0;9.809403180E0
8.917309250E0;9.520202637E-2;1.197509766E-1;9.782307587E0;9.783503741E0
8.927288250E0;8.696914673E-2;1.190025330E-1;9.774972839E0;9.776084045E0
8.937267250E0;9.909393311E-2;1.230441284E-1;9.777218170E0;9.778494496E0
8.947246250E0;1.010398865E-1;1.269360352E-1;9.800569611E0;9.801912390E0
8.957225250E0;8.951385498E-2;1.260379028E-1;9.801617432E0;9.802836455E0
8.967204250E0;9.340576172E-2;1.323248291E-1;9.793384552E0;9.794723859E0
8.977183250E0;8.981323242E-2;1.269360352E-1;9.778715057E0;9.779951296E0
8.987162250E0;9.056167603E-2;1.194515991E-1;9.780211945E0;9.781360630E0
8.997141250E0;1.056802368E-1;1.181044006E-1;9.784403229E0;9.785686665E0
9.007119250E0;9.610015869E-2;1.210981750E-1;9.799671478E0;9.800890831E0
9.017098250E0;9.190887451E-2;1.224453735E-1;9.798024902E0;9.799220994E0
9.027077250E0;1.016386414E-1;1.182540894E-1;9.780062256E0;9.781305239E0
9.037056250E0;9.086105347E-2;1.248403931E-1;9.774972839E0;9.776192248E0
9.047035250E0;9.370513916E-2;1.227447510E-1;9.772428131E0;9.773648168E0
9.057014250E0;9.669891357E-2;1.133143616E-1;9.788893890E0;9.790027294E0
9.066993250E0;9.789642334E-2;1.170565796E-1;9.799821167E0;9.801009175E0
9.076972250E0;9.849517822E-2;1.219963074E-1;9.793534241E0;9.794789294E0
9.086951250E0;9.460327148E-2;1.212478638E-1;9.788444824E0;9.789652849E0
9.096930250E0;9.969268799E-2;1.245410156E-1;9.781858521E0;9.783159265E0
9.106909250E0;9.175918579E-2;1.290316772E-1;9.785301361E0;9.786582225E0
9.116887250E0;1.032852173E-1;1.212478638E-1;9.782906342E0;9.784202848E0
9.126866250E0;9.624984741E-2;1.119671631E-1;9.785151672E0;9.786265576E0
9.136845250E0;9.550140381E-2;1.233435059E-1;9.797426147E0;9.798667933E0
9.146824250E0;9.071136475E-2;1.260379028E-1;9.798473969E0;9.799704394E0
9.156803250E0;9.190887451E-2;1.157093811E-1;9.782756653E0;9.783872630E0
9.166782250E0;1.056802368E-1;1.251397705E-1;9.785451050E0;9.786821778E0
9.176761250E0;9.250762939E-2;1.260379028E-1;9.787546692E0;9.788795302E0
9.186740250E0;9.580078125E-2;1.164578247E-1;9.782157898E0;9.783320160E0
9.196719250E0;1.010398865E-1;1.194515991E-1;9.787696381E0;9.788946735E0
9.206698250E0;9.325607300E-2;1.263372803E-1;9.772577820E0;9.773839320E0
9.216677250E0;9.954299927E-2;1.257385254E-1;9.786498871E0;9.787812786E0
9.226655250E0;9.894424438E-2;1.294807434E-1;9.805209961E0;9.806564006E0
9.236634250E0;9.235794067E-2;1.273851013E-1;9.793983307E0;9.795247111E0
9.246613250E0;9.265731812E-2;1.182540894E-1;9.789941711E0;9.791094327E0
9.256592250E0;9.744735718E-2;1.206491089E-1;9.789492645E0;9.790721038E0
9.266571250E0;9.355545044E-2;1.170565796E-1;9.783355408E0;9.784502946E0
9.276550250E0;8.981323242E-2;1.221459961E-1;9.787397003E0;9.788571201E0
9.286529250E0;1.056802368E-1;1.182540894E-1;9.794132996E0;9.795416963E0
9.296508250E0;9.759704590E-2;1.260379028E-1;9.786648560E0;9.787946708E0
9.306487250E0;8.562194824E-2;1.204994202E-1;9.794432373E0;9.795547802E0
9.316466250E0;9.729766846E-2;1.148112488E-1;9.777667236E0;9.778825341E0
9.326445250E0;8.846603394E-2;1.166075134E-1;9.808353424E0;9.809445471E0
9.336423250E0;1.013392639E-1;1.169068909E-1;9.803862762E0;9.805083474E0
9.346402250E0;8.681945801E-2;1.338217163E-1;9.791139221E0;9.792438569E0
9.356381250E0;1.179547119E-1;1.121168518E-1;9.804012451E0;9.805363004E0
9.366360250E0;9.145980835E-2;1.239422607E-1;9.765991516E0;9.767206196E0
9.376339250E0;1.067280579E-1;1.155596924E-1;9.805060272E0;9.806322035E0
9.386318250E0;9.415420532E-2;1.288819885E-1;9.755213928E0;9.756519583E0
9.396297250E0;9.879455566E-2;1.252894592E-1;9.837243347E0;9.838537213E0
9.406276250E0;9.041198730E-2;1.073268127E-1;9.791288910E0;9.792294516E0
9.416255250E0;8.786727905E-2;1.240919495E-1;9.783654785E0;9.784836249E0
9.426234250E0;9.041198730E-2;1.182540894E-1;9.773475952E0;9.774609483E0
9.436213250E0;1.061293030E-1;1.124162292E-1;9.778265991E0;9.779488056E0
9.446191250E0;9.894424438E-2;1.228944397E-1;9.797575836E0;9.798846119E0
9.456170250E0;9.624984741E-2;1.197509766E-1;9.797575836E0;9.798780363E0
9.466149250E0;8.741821289E-2;1.167572021E-1;9.789043579E0;9.790130151E0
9.476128250E0;9.355545044E-2;1.210981750E-1;9.779164124E0;9.780361361E0
9.486107250E0;9.864486694E-2;1.136137390E-1;9.794881439E0;9.796037020E0
9.496086250E0;9.041198730E-2;1.181044006E-1;9.795180817E0;9.796310030E0
9.506065250E0;1.010398865E-1;1.272354126E-1;9.785151672E0;9.786500455E0
9.516044250E0;1.007405090E-1;1.239422607E-1;9.763147430E0;9.764453804E0
9.526023250E0;9.355545044E-2;1.233435059E-1;9.797276459E0;9.798499490E0
9.536002250E0;9.864486694E-2;1.203497314E-1;9.779762878E0;9.781000809E0
9.545981250E0;1.031355286E-1;1.228944397E-1;9.796677704E0;9.797991325E0
9.555959250E0;8.726852417E-2;1.148112488E-1;9.774374084E0;9.775437901E0
9.565938250E0;9.789642334E-2;1.210981750E-1;9.790540466E0;9.791778751E0
9.575917250E0;1.008901978E-1;1.188528442E-1;9.779613190E0;9.780855738E0
9.585896250E0;9.699829102E-2;1.137634277E-1;9.795779572E0;9.796920343E0
9.595875250E0;9.789642334E-2;1.231938171E-1;9.788444824E0;9.789709521E0
9.605854250E0;9.400451660E-2;1.145118713E-1;9.789792023E0;9.790913015E0
9.615833250E0;9.265731812E-2;1.239422607E-1;9.758806458E0;9.760033327E0
9.625812250E0;9.684860229E-2;1.216969299E-1;9.776170349E0;9.777407452E0
9.635791250E0;9.460327148E-2;1.254391479E-1;9.802216187E0;9.803475247E0
9.645770250E0;9.310638428E-2;1.152603149E-1;9.803862762E0;9.804982346E0
9.655749250E0;1.043330383E-1;1.207987976E-1;9.782606964E0;9.783909073E0
9.665727250E0;1.031355286E-1;1.258882141E-1;9.770631866E0;9.771987098E0
9.675706250E0;9.849517822E-2;1.197509766E-1;9.780211945E0;9.781440961E0
9.685685250E0;9.131011963E-2;1.239422607E-1;9.804611206E0;9.805819707E0
9.695664250E0;9.969268799E-2;1.272354126E-1;9.794282684E0;9.795616406E0
9.705643250E0;8.981323242E-2;1.139131165E-1;9.783056030E0;9.784131433E0
9.715621833E0;9.475296021E-2;1.225950623E-1;9.779613190E0;9.780840547E0
9.725600833E0;1.032852173E-1;1.228944397E-1;9.779014435E0;9.780332008E0
9.735579833E0;9.415420532E-2;1.200503540E-1;9.811496887E0;9.812683031E0
9.745558833E0;8.382568359E-2;1.246907043E-1;9.804910583E0;9.806061700E0
9.755537833E0;1.008901978E-1;1.175056458E-1;9.795480194E0;9.796704479E0
9.765516833E0;9.280700684E-2;1.154100037E-1;9.785001984E0;9.786122645E0
9.775494833E0;9.610015869E-2;1.155596924E-1;9.779762878E0;9.780917710E0
9.785473833E0;9.819580078E-2;1.175056458E-1;9.782008209E0;9.783206765E0
9.795452833E0;9.355545044E-2;1.197509766E-1;9.783355408E0;9.784535551E0
9.805431833E0;9.580078125E-2;1.145118713E-1;9.786199493E0;9.787338315E0
9.815410833E0;9.744735718E-2;1.215472412E-1;9.782457275E0;9.783697668E0
9.825389833E0;9.370513916E-2;1.164578247E-1;9.782307587E0;9.783449535E0
9.835368833E0;1.019380188E-1;1.196012878E-1;9.804311829E0;9.805571185E0
9.845347833E0;1.019380188E-1;1.264869690E-1;9.798773346E0;9.800119867E0
9.855326833E0;9.744735718E-2;1.158590698E-1;9.799671478E0;9.800840800E0
9.865305833E0;9.714797974E-2;1.175056458E-1;9.777068481E0;9.778257176E0
9.875284833E0;8.831634521E-2;1.239422607E-1;9.773475952E0;9.774660795E0
9.885262833E0;1.043330383E-1;1.231938171E-1;9.784552917E0;9.785884625E0
9.895241833E0;9.535171509E-2;1.230441284E-1;9.786947937E0;9.788185824E0
9.905220833E0;9.759704590E-2;1.212478638E-1;9.798773346E0;9.800009455E0
9.915199833E0;1.104702759E-1;1.224453735E-1;9.769284668E0;9.770676511E0
9.925178833E0;9.894424438E-2;1.203497314E-1;9.772877197E0;9.774119026E0
9.935157833E0;1.032852173E-1;1.230441284E-1;9.776020660E0;9.777340520E0
9.945136833E0;9.729766846E-2;1.216969299E-1;9.724378052E0;9.725626225E0
9.955115833E0;1.026864624E-1;1.163081360E-1;9.729916534E0;9.731153470E0
9.965094833E0;9.101074219E-2;1.233435059E-1;9.922865295E0;9.924049186E0
9.975073833E0;9.520202637E-2;1.483415222E-1;1.013856674E1;1.014009883E1
9.985052833E0;9.490264893E-2;1.062789917E-1;9.537416840E0;9.538481101E0
9.995030833E0;9.774673462E-2;1.148112488E-1;9.628128204E0;9.629308842E0
1.000500983E1;9.744735718E-2;1.302291870E-1;9.699679413E0;9.701043054E0
1.001498883E1;9.639953613E-2;9.550140381E-2;9.893077240E0;9.894007816E0
1.002496783E1;9.011260986E-2;1.481918335E-1;9.946366425E0;9.947878475E0
1.003494683E1;1.050814819E-1;1.173559570E-1;9.757758636E0;9.759030082E0
1.004492583E1;9.744735718E-2;9.684860229E-2;9.700577545E0;9.701550410E0
1.005490483E1;9.520202637E-2;1.377136230E-1;9.705517273E0;9.706961111E0
1.006488383E1;9.565109253E-2;1.124162292E-1;9.819580078E0;9.820689357E0
1.007486283E1;9.041198730E-2;1.225950623E-1;9.860295410E0;9.861471972E0
1.008484183E1;9.071136475E-2;1.375639343E-1;9.834998016E0;9.836378316E0
1.009482083E1;1.011895752E-1;1.107696533E-1;9.760902100E0;9.762055063E0
1.010479883E1;9.295669556E-2;1.297801208E-1;9.763596497E0;9.764901452E0
1.011477783E1;9.490264893E-2;1.293310547E-1;9.773775330E0;9.775091674E0
1.012475683E1;9.310638428E-2;1.128652954E-1;9.808203735E0;9.809294974E0
1.013473583E1;9.535171509E-2;1.163081360E-1;9.812844086E0;9.813996565E0
1.014471483E1;1.052311707E-1;1.251397705E-1;9.787397003E0;9.788762621E0
1.015469383E1;1.004411316E-1;1.175056458E-1;9.775272217E0;9.776494408E0
1.016467283E1;9.116043091E-2;1.207987976E-1;9.773625641E0;9.774797223E0
1.017465183E1;9.610015869E-2;1.170565796E-1;9.804162140E0;9.805331853E0
1.018463083E1;9.654922485E-2;1.176553345E-1;9.800868988E0;9.802050676E0
1.019460983E1;9.759704590E-2;1.185534668E-1;9.773326263E0;9.774532539E0
1.020458883E1;1.002914429E-1;1.293310547E-1;9.775122528E0;9.776492486E0
1.021456683E1;9.610015869E-2;1.263372803E-1;9.777966614E0;9.779254954E0
1.022454583E1;1.067280579E-1;1.151106262E-1;9.803862762E0;9.805119398E0
1.023452483E1;9.879455566E-2;1.282832336E-1;9.802515564E0;9.803852729E0
1.024450383E1;1.005908203E-1;1.204994202E-1;9.802814941E0;9.804071573E0
1.025448283E1;9.355545044E-2;1.219963074E-1;9.765243073E0;9.766453194E0
1.026446183E1;9.565109253E-2;1.182540894E-1;9.763895874E0;9.765080430E0
1.027444083E1;9.759704590E-2;1.240919495E-1;9.778864746E0;9.780139044E0
1.028441983E1;9.744735718E-2;1.225950623E-1;9.819879456E0;9.821128146E0
1.029439883E1;8.427474976E-2;1.276844788E-1;9.810000000E0;9.811192871E0
1.030437783E1;9.310638428E-2;1.249900818E-1;9.784702606E0;9.785943818E0
1.031435683E1;1.019380188E-1;1.207987976E-1;9.764045563E0;9.765324852E0
1.032433483E1;9.520202637E-2;1.206491089E-1;9.762249298E0;9.763458967E0
1.033431383E1;9.265731812E-2;1.194515991E-1;9.799072723E0;9.800238788E0
1.034429283E1;9.250762939E-2;1.202000427E-1;9.816137238E0;9.817308999E0
1.035427183E1;9.550140381E-2;1.239422607E-1;9.794881439E0;9.796131104E0
1.036425083E1;9.864486694E-2;1.240919495E-1;9.778265991E0;9.779550880E0
1.037422983E1;9.190887451E-2;1.230441284E-1;9.761201477E0;9.762409609E0
1.038420883E1;9.774673462E-2;1.242416382E-1;9.779014435E0;9.780292108E0
1.039418783E1;9.295669556E-2;1.178050232E-1;9.799372101E0;9.800521034E0
1.040416683E1;9.864486694E-2;1.212478638E-1;9.802964630E0;9.804210697E0
1.041414583E1;9.400451660E-2;1.213975525E-1;9.798473969E0;9.799676848E0
1.042412483E1;9.235794067E-2;1.176553345E-1;9.764943695E0;9.766089193E0
1.043410283E1;1.017883301E-1;1.160087585E-1;9.771380310E0;9.772599043E0
1.044408183E1;9.969268799E-2;1.194515991E-1;9.776619415E0;9.777857358E0
1.045406083E1;9.086105347E-2;1.233435059E-1;9.797126770E0;9.798324464E0
1.046403983E1;9.131011963E-2;1.248403931E-1;9.805659027E0;9.806878791E0
1.047401883E1;8.517288208E-2;1.204994202E-1;9.787397003E0;9.788509316E0
1.048399783E1;9.460327148E-2;1.179547119E-1;9.767488403E0;9.768658700E0
1.049397683E1;9.595046997E-2;1.181044006E-1;9.773026886E0;9.774211460E0
1.050395583E1;9.969268799E-2;1.239422607E-1;9.774972839E0;9.776266891E0
1.051393483E1;9.265731812E-2;1.242416382E-1;9.800719299E0;9.801944713E0
1.052391383E1;8.891510010E-2;1.193019104E-1;9.793534241E0;9.794664454E0
1.053389283E1;9.056167603E-2;1.237925720E-1;9.798324280E0;9.799524719E0
1.054387083E1;1.019380188E-1;1.175056458E-1;9.791438599E0;9.792674240E0
1.055384983E1;1.049317932E-1;1.239422607E-1;9.782606964E0;9.783954792E0
1.056382883E1;8.966354370E-2;1.228944397E-1;9.768087158E0;9.769271689E0
1.057380783E1;9.924362183E-2;1.258882141E-1;9.790091400E0;9.791403718E0
1.058378683E1;9.610015869E-2;1.210981750E-1;9.797725525E0;9.798945120E0
1.059376583E1;9.370513916E-2;1.225950623E-1;9.793833618E0;9.795049114E0
1.060374483E1;1.029858398E-1;1.248403931E-1;9.782457275E0;9.783795866E0
1.061372383E1;9.774673462E-2;1.206491089E-1;9.768386536E0;9.769620573E0
1.062370283E1;1.004411316E-1;1.221459961E-1;9.777367859E0;9.778646650E0
1.063368183E1;8.816665649E-2;1.312770081E-1;9.808353424E0;9.809628123E0
1.064366083E1;9.071136475E-2;1.219963074E-1;9.805808716E0;9.806987112E0
1.065363883E1;1.011895752E-1;1.279838562E-1;9.806856537E0;9.808213616E0
1.066361783E1;9.729766846E-2;1.237925720E-1;9.777966614E0;9.779234251E0
1.067359683E1;9.849517822E-2;1.206491089E-1;9.769883423E0;9.771124787E0
1.068357583E1;1.065783691E-1;1.240919495E-1;9.771529999E0;9.772899072E0
1.069355483E1;1.008901978E-1;1.204994202E-1;9.797725525E0;9.798985886E0
1.070353383E1;9.595046997E-2;1.230441284E-1;9.795031128E0;9.796273840E0
1.071351287E1;8.472381592E-2;1.155596924E-1;9.793983307E0;9.795031454E0
1.072349188E1;9.535171509E-2;1.187031555E-1;9.786648560E0;9.787832876E0
1.073347088E1;9.879455566E-2;1.178050232E-1;9.780960388E0;9.782168701E0
1.074344988E1;9.490264893E-2;1.251397705E-1;9.782606964E0;9.783867614E0
1.075342888E1;9.340576172E-2;1.219963074E-1;9.801018677E0;9.802222954E0
1.076340688E1;9.056167603E-2;1.193019104E-1;9.797276459E0;9.798421320E0
1.077338587E1;8.307723999E-2;1.237925720E-1;9.784852295E0;9.785987986E0
1.078336488E1;9.984237671E-2;1.184037781E-1;9.783505096E0;9.784730958E0
1.079334388E1;9.669891357E-2;1.278341675E-1;9.784403229E0;9.785716060E0
1.080332288E1;9.744735718E-2;1.203497314E-1;9.782906342E0;9.784131874E0
1.081330188E1;1.004411316E-1;1.302291870E-1;9.785750427E0;9.787132342E0
1.082328087E1;8.966354370E-2;1.230441284E-1;9.784702606E0;9.785887006E0
1.083325988E1;8.622070312E-2;1.212478638E-1;9.793085175E0;9.794215246E0
1.084323888E1;9.235794067E-2;1.164578247E-1;9.781858521E0;9.782987710E0
1.085321788E1;8.816665649E-2;1.278341675E-1;9.779912567E0;9.781145370E0
1.086319687E1;9.729766846E-2;1.255888367E-1;9.777816925E0;9.779107485E0
1.087317487E1;9.819580078E-2;1.261875916E-1;9.782906342E0;9.784212907E0
1.088315388E1;9.894424438E-2;1.227447510E-1;9.799372101E0;9.800640275E0
1.089313288E1;9.430389404E-2;1.187031555E-1;9.798923035E0;9.800095729E0
1.090311188E1;9.969268799E-2;1.207987976E-1;9.793384552E0;9.794636898E0
1.091309088E1;9.415420532E-2;1.170565796E-1;9.791887665E0;9.793039942E0
1.092306987E1;9.744735718E-2;1.203497314E-1;9.786199493E0;9.787424614E0
1.093304888E1;9.430389404E-2;1.199006653E-1;9.801916809E0;9.803103719E0
1.094302788E1;9.565109253E-2;1.225950623E-1;9.802216187E0;9.803449436E0
1.095300688E1;9.340576172E-2;1.219963074E-1;9.791737976E0;9.792943394E0
1.096298588E1;9.430389404E-2;1.178050232E-1;9.775272217E0;9.776436885E0
1.097296487E1;8.771759033E-2;1.206491089E-1;9.768386536E0;9.769525377E0
1.098294287E1;9.250762939E-2;1.243913269E-1;9.784552917E0;9.785780841E0
1.099292188E1;9.789642334E-2;1.278341675E-1;9.786947937E0;9.788272330E0
1.100290088E1;9.819580078E-2;1.204994202E-1;9.794282684E0;9.795516108E0
1.101287988E1;9.370513916E-2;1.196012878E-1;9.789492645E0;9.790671651E0
1.102285887E1;9.729766846E-2;1.260379028E-1;9.788295135E0;9.789590086E0
1.103283788E1;9.340576172E-2;1.234931946E-1;9.789941711E0;9.791166116E0
1.104281688E1;9.041198730E-2;1.213975525E-1;9.789492645E0;9.790662794E0
1.105279588E1;9.190887451E-2;1.209484863E-1;9.782457275E0;9.783636651E0
1.106277488E1;1.032852173E-1;1.221459961E-1;9.792037354E0;9.793343812E0
1.107275387E1;9.086105347E-2;1.191522217E-1;9.786947937E0;9.788094958E0
1.108273288E1;8.921447754E-2;1.204994202E-1;9.782157898E0;9.783306827E0
1.109271088E1;9.490264893E-2;1.199006653E-1;9.790091400E0;9.791285529E0
1.110268988E1;9.789642334E-2;1.246907043E-1;9.801318054E0;9.802600016E0
1.111266888E1;9.370513916E-2;1.230441284E-1;9.798024902E0;9.799245507E0
1.112264788E1;9.714797974E-2;1.122665405E-1;9.788145447E0;9.789271311E0
1.113262687E1;1.014889526E-1;1.213975525E-1;9.790690155E0;9.791968703E0
1.114260588E1;9.580078125E-2;1.193019104E-1;9.777816925E0;9.779013987E0
1.115258488E1;1.008901978E-1;1.264869690E-1;9.790989532E0;9.792326272E0
1.116256388E1;9.415420532E-2;1.216969299E-1;9.785151672E0;9.786361347E0
1.117254287E1;9.759704590E-2;1.239422607E-1;9.795480194E0;9.796750436E0
1.118252188E1;1.025367737E-1;1.213975525E-1;9.792187042E0;9.793476310E0
1.119250088E1;9.669891357E-2;1.240919495E-1;9.794282684E0;9.795546069E0
1.120247888E1;1.032852173E-1;1.169068909E-1;9.801018677E0;9.802260054E0
1.121245788E1;9.789642334E-2;1.185534668E-1;9.786947937E0;9.788155524E0
1.122243688E1;9.759704590E-2;1.224453735E-1;9.782008209E0;9.783261351E0
1.123241587E1;9.265731812E-2;1.212478638E-1;9.774972839E0;9.776163891E0
1.124239488E1;9.205856323E-2;1.239422607E-1;9.790839844E0;9.792057052E0
1.125237388E1;9.684860229E-2;1.190025330E-1;9.795330505E0;9.796532089E0
1.126235288E1;9.834548950E-2;1.194515991E-1;9.795929260E0;9.797151147E0
1.127233188E1;9.325607300E-2;1.267863464E-1;9.777367859E0;9.778634553E0
1.128231087E1;9.190887451E-2;1.242416382E-1;9.780211945E0;9.781432866E0
1.129228988E1;9.804611206E-2;1.187031555E-1;9.793983307E0;9.795193336E0
1.130226888E1;9.654922485E-2;1.225950623E-1;9.778265991E0;9.779511087E0
1.131224688E1;8.876541138E-2;1.245410156E-1;9.789043579E0;9.790238197E0
1.132222588E1;9.145980835E-2;1.261875916E-1;9.779613190E0;9.780854888E0
1.133220487E1;9.759704590E-2;1.228944397E-1;9.790241089E0;9.791498803E0
1.134218388E1;1.053808594E-1;1.254391479E-1;9.787097626E0;9.788468728E0
1.135216288E1;1.040336609E-1;1.215472412E-1;9.792336731E0;9.793643622E0
1.136214188E1;8.936416626E-2;1.236428833E-1;9.789043579E0;9.790232260E0
1.137212088E1;8.996292114E-2;1.287322998E-1;9.773326263E0;9.774588052E0
1.138209987E1;9.804611206E-2;1.266366577E-1;9.787097626E0;9.788407931E0
1.139207888E1;8.876541138E-2;1.202000427E-1;9.795929260E0;9.797068818E0
1.140205788E1;1.026864624E-1;1.182540894E-1;9.792636108E0;9.793888425E0
1.141203688E1;9.954299927E-2;1.227447510E-1;9.790091400E0;9.791366846E0
1.142201488E1;8.427474976E-2;1.224453735E-1;9.782157898E0;9.783287190E0
1.143199388E1;9.250762939E-2;1.170565796E-1;9.778415680E0;9.779553830E0
1.144197287E1;9.520202637E-2;1.239422607E-1;9.785451050E0;9.786699002E0
1.145195188E1;9.026229858E-2;1.236428833E-1;9.799222412E0;9.800418089E0
1.146193088E1;9.250762939E-2;1.276844788E-1;9.798923035E0;9.800191510E0
1.147190988E1;9.445358276E-2;1.227447510E-1;9.783954163E0;9.785179958E0
1.148188887E1;9.430389404E-2;1.191522217E-1;9.782307587E0;9.783487732E0
1.149186788E1;9.145980835E-2;1.227447510E-1;9.779613190E0;9.780811076E0
1.150184688E1;9.939331055E-2;1.172062683E-1;9.793234863E0;9.794440537E0
1.151182588E1;1.047821045E-1;1.215472412E-1;9.793085175E0;9.794399944E0
1.152180488E1;9.684860229E-2;1.224453735E-1;9.792187042E0;9.793431451E0
1.153178288E1;9.969268799E-2;1.239422607E-1;9.781708832E0;9.783001993E0
1.154176187E1;9.550140381E-2;1.191522217E-1;9.783205719E0;9.784397371E0
1.155174088E1;9.026229858E-2;1.190025330E-1;9.790091400E0;9.791230694E0
1.156171988E1;9.699829102E-2;1.207987976E-1;9.794731750E0;9.795956874E0
1.157169888E1;9.834548950E-2;1.178050232E-1;9.787097626E0;9.788300659E0
1.158167788E1;9.565109253E-2;1.199006653E-1;9.781708832E0;9.782911273E0
1.159165687E1;9.984237671E-2;1.278341675E-1;9.783205719E0;9.784550282E0
1.160163588E1;1.044827271E-1;1.182540894E-1;9.783654785E0;9.784927267E0
1.161161488E1;1.017883301E-1;1.166075134E-1;9.787696381E0;9.788920197E0
1.162159388E1;1.061293030E-1;1.219963074E-1;9.792336731E0;9.793671690E0
1.163157287E1;9.610015869E-2;1.249900818E-1;9.796228638E0;9.797497297E0
1.164155087E1;8.876541138E-2;1.285826111E-1;9.788145447E0;9.789392426E0
1.165152988E1;8.247848511E-2;1.245410156E-1;9.785001984E0;9.786142089E0
1.166150888E1;9.864486694E-2;1.166075134E-1;9.785001984E0;9.786193946E0
1.167148788E1;9.669891357E-2;1.172062683E-1;9.785301361E0;9.786481018E0
1.168146688E1;9.624984741E-2;1.221459961E-1;9.797426147E0;9.798660255E0
1.169144587E1;9.669891357E-2;1.185534668E-1;9.798174591E0;9.799368904E0
1.170142488E1;8.696914673E-2;1.210981750E-1;9.786349182E0;9.787484800E0
1.171140388E1;8.876541138E-2;1.215472412E-1;9.784852295E0;9.786009783E0
1.172138346E1;9.654922485E-2;1.196012878E-1;9.776020660E0;9.777228962E0
1.173136246E1;9.086105347E-2;1.175056458E-1;9.782756653E0;9.783884251E0
1.174134146E1;9.834548950E-2;1.221459961E-1;9.799521790E0;9.800776438E0
1.175131946E1;9.580078125E-2;1.263372803E-1;9.794881439E0;9.796164622E0
1.176129846E1;1.014889526E-1;1.218466187E-1;9.773475952E0;9.774762339E0
1.177127746E1;8.936416626E-2;1.202000427E-1;9.786049805E0;9.787195961E0
1.178125646E1;9.190887451E-2;1.128652954E-1;9.791737976E0;9.792819737E0
1.179123546E1;9.565109253E-2;1.169068909E-1;9.801318054E0;9.802481928E0
1.180121446E1;9.924362183E-2;1.237925720E-1;9.785451050E0;9.786737257E0
1.181119346E1;9.011260986E-2;1.181044006E-1;9.796977081E0;9.798103330E0
1.182117246E1;9.265731812E-2;1.191522217E-1;9.787397003E0;9.788560810E0
1.183115146E1;9.205856323E-2;1.260379028E-1;9.782756653E0;9.784001638E0
1.184113046E1;9.505233765E-2;1.272354126E-1;9.778265991E0;9.779555695E0
1.185110946E1;1.023870850E-1;1.275347900E-1;9.787696381E0;9.789062707E0
1.186108746E1;9.804611206E-2;1.160087585E-1;9.800120544E0;9.801297555E0
1.187106646E1;9.909393311E-2;1.252894592E-1;9.795031128E0;9.796333592E0
1.188104546E1;1.034349060E-1;1.237925720E-1;9.784103851E0;9.785433642E0
1.189102446E1;9.131011963E-2;1.196012878E-1;9.785301361E0;9.786458232E0
1.190100346E1;9.190887451E-2;1.155596924E-1;9.787995758E0;9.789109369E0
1.191098246E1;9.759704590E-2;1.167572021E-1;9.790540466E0;9.791723038E0
1.192096146E1;9.520202637E-2;1.175056458E-1;9.795031128E0;9.796198538E0
1.193094046E1;9.220825195E-2;1.222956848E-1;9.792187042E0;9.793384791E0
1.194091946E1;9.535171509E-2;1.290316772E-1;9.797875214E0;9.799188733E0
1.195089846E1;9.819580078E-2;1.272354126E-1;9.795031128E0;9.796349629E0
1.196087746E1;1.010398865E-1;1.149609375E-1;9.786049805E0;9.787246592E0
1.197085546E1;1.005908203E-1;1.209484863E-1;9.788893890E0;9.790157846E0
1.198083446E1;9.490264893E-2;1.182540894E-1;9.792486420E0;9.793660236E0
1.199081346E1;9.819580078E-2;1.154100037E-1;9.776020660E0;9.777194988E0
1.200079246E1;9.999206543E-2;1.263372803E-1;9.788444824E0;9.789770763E0
1.201077146E1;9.490264893E-2;1.182540894E-1;9.779912567E0;9.781087893E0
1.202075046E1;9.520202637E-2;1.148112488E-1;9.777218170E0;9.778355700E0
1.203072946E1;1.017883301E-1;1.231938171E-1;9.794731750E0;9.796035302E0
1.204070846E1;9.190887451E-2;1.190025330E-1;9.815089417E0;9.816241088E0
1.205068746E1;8.607101440E-2;1.209484863E-1;9.813442841E0;9.814565560E0
1.206066646E1;9.520202637E-2;1.204994202E-1;9.779912567E0;9.781118206E0
1.207064546E1;9.595046997E-2;1.215472412E-1;9.777517548E0;9.778743765E0
1.208062346E1;1.041833496E-1;1.161584473E-1;9.775421906E0;9.776667141E0
1.209060246E1;9.355545044E-2;1.228944397E-1;9.807006226E0;9.808222406E0
1.210058146E1;9.265731812E-2;1.267863464E-1;9.806706848E0;9.807964078E0
1.211056046E1;8.846603394E-2;1.305285645E-1;9.778715057E0;9.779986305E0
1.212053946E1;9.355545044E-2;1.167572021E-1;9.789043579E0;9.790186876E0
1.213051846E1;9.684860229E-2;1.240919495E-1;9.818083191E0;9.819344989E0
1.214049746E1;9.490264893E-2;1.151106262E-1;9.596394196E0;9.597553778E0
1.215047646E1;9.834548950E-2;1.124162292E-1;9.817185059E0;9.818321227E0
1.216045546E1;9.475296021E-2;1.496887207E-1;9.912686462E0;9.914269400E0
1.217043446E1;9.639953613E-2;1.143621826E-1;9.830507355E0;9.831645154E0
1.218041346E1;8.652008057E-2;1.221459961E-1;9.736951904E0;9.738102369E0
1.219039146E1;9.325607300E-2;1.207987976E-1;9.708511047E0;9.709710387E0
1.220037046E1;9.205856323E-2;9.954299927E-2;9.742640076E0;9.743583490E0
1.221034946E1;1.014889526E-1;1.384620667E-1;9.812993774E0;9.814495329E0
1.222032846E1;9.669891357E-2;1.185534668E-1;9.827962646E0;9.829153340E0
1.223030746E1;9.250762939E-2;1.155596924E-1;9.831704865E0;9.832819140E0
1.224028646E1;8.996292114E-2;1.312770081E-1;9.795180817E0;9.796473560E0
1.225026546E1;9.624984741E-2;1.068777466E-1;9.752818909E0;9.753879410E0
1.226024446E1;8.711883545E-2;1.151106262E-1;9.746681671E0;9.747750702E0
1.227022346E1;1.022373962E-1;1.222956848E-1;9.730515289E0;9.731820822E0
1.228020246E1;8.921447754E-2;1.224453735E-1;9.901160431E0;9.902319424E0
1.229018146E1;9.744735718E-2;1.199006653E-1;9.814340973E0;9.815557085E0
1.230015946E1;9.580078125E-2;1.263372803E-1;9.783056030E0;9.784340764E0
1.231013846E1;8.532257080E-2;1.306782532E-1;9.744436340E0;9.745686037E0
1.232011746E1;1.065783691E-1;1.065783691E-1;9.767488403E0;9.768651269E0
1.233009646E1;1.007405090E-1;1.182540894E-1;9.782307587E0;9.783540995E0
1.234007546E1;1.028361511E-1;1.164578247E-1;9.798324280E0;9.799555928E0
1.235005446E1;1.002914429E-1;1.184037781E-1;9.814939728E0;9.816166242E0
1.236003346E1;9.744735718E-2;1.336720276E-1;9.839039612E0;9.840430107E0
1.237001246E1;8.876541138E-2;1.224453735E-1;9.758656769E0;9.759828590E0
1.237999146E1;9.265731812E-2;1.098715210E-1;9.770931244E0;9.771988257E0
1.238997046E1;9.280700684E-2;1.255888367E-1;9.745334473E0;9.746585540E0
1.239994946E1;1.022373962E-1;1.151106262E-1;9.803713074E0;9.804921875E0
1.240992746E1;1.002914429E-1;1.266366577E-1;9.807455292E0;9.808785578E0
1.241990646E1;9.729766846E-2;1.221459961E-1;9.802365875E0;9.803609704E0
1.242988546E1;7.634124756E-2;1.116677856E-1;9.773625641E0;9.774561670E0
1.243986446E1;9.580078125E-2;1.234931946E-1;9.782457275E0;9.783705776E0
1.244984346E1;1.005908203E-1;1.188528442E-1;9.782906342E0;9.784145389E0
1.245982246E1;1.032852173E-1;1.284329224E-1;9.793085175E0;9.794471915E0
1.246980146E1;9.864486694E-2;1.206491089E-1;9.760003967E0;9.761248099E0
1.247978046E1;8.457412720E-2;1.155596924E-1;9.798024902E0;9.799071324E0
1.248975946E1;8.921447754E-2;1.252894592E-1;9.804611206E0;9.805817537E0
1.249973846E1;9.580078125E-2;1.157093811E-1;9.815089417E0;9.816238929E0
1.250971746E1;9.430389404E-2;1.161584473E-1;9.785001984E0;9.786145811E0
1.251969546E1;1.094224548E-1;1.213975525E-1;9.775421906E0;9.776788024E0
1.252967446E1;9.190887451E-2;1.121168518E-1;9.754914551E0;9.755991765E0
1.253965346E1;8.996292114E-2;1.216969299E-1;9.786648560E0;9.787818628E0
1.254963246E1;8.756790161E-2;1.167572021E-1;9.816885681E0;9.817970506E0
1.255961146E1;9.041198730E-2;1.245410156E-1;9.802066498E0;9.803274576E0
1.256959046E1;9.744735718E-2;1.221459961E-1;9.794432373E0;9.795678697E0
1.257956946E1;1.058299255E-1;1.179547119E-1;9.748477936E0;9.749765913E0
1.258954846E1;9.430389404E-2;1.240919495E-1;9.776020660E0;9.777263011E0
1.259952746E1;9.639953613E-2;1.260379028E-1;9.803713074E0;9.804997117E0
1.260950646E1;8.113128662E-2;1.149609375E-1;9.812544708E0;9.813553483E0
1.261948546E1;9.475296021E-2;1.290316772E-1;9.801916809E0;9.803223981E0
1.262946346E1;9.744735718E-2;1.121168518E-1;9.760752411E0;9.761882698E0
1.263944246E1;9.699829102E-2;1.160087585E-1;9.768236847E0;9.769407239E0
1.264942146E1;1.038839722E-1;1.169068909E-1;9.782307587E0;9.783557677E0
1.265940046E1;9.535171509E-2;1.179547119E-1;9.803713074E0;9.804886297E0
1.266937946E1;8.352630615E-2;1.193019104E-1;9.796528015E0;9.797610461E0
1.267935846E1;8.981323242E-2;1.193019104E-1;9.782307587E0;9.783447301E0
1.268933746E1;9.804611206E-2;1.182540894E-1;9.778415680E0;9.779622195E0
1.269931646E1;9.864486694E-2;1.243913269E-1;9.768087158E0;9.769377193E0
1.270929546E1;9.729766846E-2;1.230441284E-1;9.791288910E0;9.792545390E0
1.271927358E1;9.011260986E-2;1.282832336E-1;9.804611206E0;9.805864458E0
1.272925258E1;9.669891357E-2;1.270857239E-1;9.788893890E0;9.790196375E0
1.273923058E1;9.639953613E-2;1.188528442E-1;9.774823151E0;9.776020995E0
1.274920958E1;9.864486694E-2;1.167572021E-1;9.782307587E0;9.783501662E0
1.275918858E1;8.816665649E-2;1.163081360E-1;9.801168365E0;9.802254958E0
1.276916758E1;9.385482788E-2;1.213975525E-1;9.793983307E0;9.795185302E0
1.277914658E1;9.624984741E-2;1.203497314E-1;9.796378326E0;9.797590337E0
1.278912558E1;9.086105347E-2;1.190025330E-1;9.770781555E0;9.771928650E0
1.279910458E1;9.475296021E-2;1.230441284E-1;9.774823151E0;9.776056751E0
1.280908358E1;9.565109253E-2;1.228944397E-1;9.783505096E0;9.784744460E0
1.281906258E1;9.265731812E-2;1.242416382E-1;9.795180817E0;9.796406923E0
1.282904158E1;8.861572266E-2;1.255888367E-1;9.804012451E0;9.805217256E0
1.283902058E1;9.849517822E-2;1.166075134E-1;9.797725525E0;9.798914433E0
1.284899858E1;9.235794067E-2;1.187031555E-1;9.787097626E0;9.788253182E0
1.285897758E1;9.400451660E-2;1.218466187E-1;9.784103851E0;9.785314079E0
1.286895658E1;9.205856323E-2;1.191522217E-1;9.772128754E0;9.773288720E0
1.287893558E1;9.505233765E-2;1.210981750E-1;9.784852295E0;9.786063261E0
1.288891458E1;9.400451660E-2;1.166075134E-1;9.790989532E0;9.792135119E0
1.289889358E1;1.002914429E-1;1.163081360E-1;9.794731750E0;9.795935689E0
1.290887258E1;8.966354370E-2;1.136137390E-1;9.795629883E0;9.796699058E0
1.291885158E1;9.610015869E-2;1.246907043E-1;9.782008209E0;9.783274892E0
1.292883058E1;1.014889526E-1;1.245410156E-1;9.788444824E0;9.789763151E0
1.293880958E1;9.759704590E-2;1.210981750E-1;9.790540466E0;9.791775762E0
1.294878858E1;9.819580078E-2;1.143621826E-1;9.793983307E0;9.795143191E0
1.295876658E1;9.205856323E-2;1.276844788E-1;9.796977081E0;9.798241579E0
1.296874558E1;9.684860229E-2;1.187031555E-1;9.779164124E0;9.780364055E0
1.297872458E1;9.984237671E-2;1.202000427E-1;9.796827393E0;9.798073459E0
1.298870358E1;8.891510010E-2;1.190025330E-1;9.800419922E0;9.801545702E0
1.299868258E1;9.280700684E-2;1.251397705E-1;9.791887665E0;9.793127036E0
1.300866158E1;9.954299927E-2;1.194515991E-1;9.777667236E0;9.778903521E0
1.301864058E1;9.669891357E-2;1.163081360E-1;9.775122528E0;9.776292687E0
1.302861958E1;9.804611206E-2;1.184037781E-1;9.776170349E0;9.777378953E0
1.303859858E1;9.789642334E-2;1.225950623E-1;9.787546692E0;9.788803987E0
1.304857758E1;9.595046997E-2;1.199006653E-1;9.796228638E0;9.797432224E0
1.305855658E1;9.849517822E-2;1.200503540E-1;9.795031128E0;9.796261950E0
1.306853458E1;9.355545044E-2;1.239422607E-1;9.772577820E0;9.773811516E0
1.307851358E1;9.370513916E-2;1.182540894E-1;9.778265991E0;9.779429967E0
1.308849258E1;8.786727905E-2;1.204994202E-1;9.793983307E0;9.795118671E0
1.309847158E1;9.101074219E-2;1.240919495E-1;9.805509338E0;9.806716839E0
1.310845058E1;9.026229858E-2;1.258882141E-1;9.793983307E0;9.795208223E0
1.311842958E1;9.415420532E-2;1.200503540E-1;9.773026886E0;9.774217698E0
1.312840858E1;9.834548950E-2;1.146615601E-1;9.774972839E0;9.776139991E0
1.313838758E1;9.370513916E-2;1.178050232E-1;9.782457275E0;9.783615335E0
1.314836658E1;1.016386414E-1;1.145118713E-1;9.790989532E0;9.792186651E0
1.315834558E1;1.011895752E-1;1.236428833E-1;9.794582062E0;9.795885088E0
1.316832458E1;9.624984741E-2;1.213975525E-1;9.775721283E0;9.776948808E0
1.317830258E1;9.580078125E-2;1.196012878E-1;9.774224396E0;9.775425556E0
1.318828158E1;9.610015869E-2;1.248403931E-1;9.789792023E0;9.791059606E0
1.319826058E1;9.595046997E-2;1.231938171E-1;9.802066498E0;9.803310198E0
1.320823958E1;9.565109253E-2;1.115180969E-1;9.788893890E0;9.789996375E0
1.321821858E1;8.532257080E-2;1.169068909E-1;9.784103851E0;9.785174262E0
1.322819758E1;1.014889526E-1;1.197509766E-1;9.777367859E0;9.778627846E0
1.323817658E1;8.876541138E-2;1.252894592E-1;9.796528015E0;9.797731263E0
1.324815558E1;8.577163696E-2;1.149609375E-1;9.785750427E0;9.786801531E0
1.325813458E1;9.774673462E-2;1.218466187E-1;9.796078949E0;9.797324318E0
1.326811358E1;8.786727905E-2;1.139131165E-1;9.780211945E0;9.781269986E0
1.327809258E1;8.951385498E-2;1.154100037E-1;9.779313812E0;9.780404431E0
1.328807058E1;9.819580078E-2;1.240919495E-1;9.783654785E0;9.784934450E0
1.329804958E1;9.819580078E-2;1.275347900E-1;9.796827393E0;9.798149545E0
1.330802858E1;9.116043091E-2;1.190025330E-1;9.800569611E0;9.801715999E0
1.331800758E1;9.924362183E-2;1.182540894E-1;9.780810699E0;9.782028995E0
1.332798658E1;9.565109253E-2;1.182540894E-1;9.783654785E0;9.784836949E0
1.333796558E1;8.861572266E-2;1.225950623E-1;9.784702606E0;9.785871826E0
1.334794458E1;9.580078125E-2;1.203497314E-1;9.795480194E0;9.796687914E0
1.335792358E1;8.412506104E-2;1.179547119E-1;9.796977081E0;9.798048289E0
1.336790258E1;8.666976929E-2;1.236428833E-1;9.784403229E0;9.785568239E0
1.337788158E1;9.385482788E-2;1.218466187E-1;9.779313812E0;9.780523195E0
1.338785958E1;8.442443848E-2;1.170565796E-1;9.779762878E0;9.780827761E0
1.339783858E1;1.049317932E-1;1.276844788E-1;9.792336731E0;9.793731294E0
1.340781758E1;1.034349060E-1;1.273851013E-1;9.792785797E0;9.794160475E0
1.341779658E1;9.056167603E-2;1.242416382E-1;9.796228638E0;9.797435018E0
1.342777558E1;9.445358276E-2;1.200503540E-1;9.795031128E0;9.796222148E0
1.343775458E1;9.370513916E-2;1.269360352E-1;9.786049805E0;9.787321605E0
1.344773358E1;9.699829102E-2;1.200503540E-1;9.779463501E0;9.780681322E0
1.345771258E1;9.056167603E-2;1.157093811E-1;9.771380310E0;9.772485009E0
1.346769158E1;1.022373962E-1;1.264869690E-1;9.782008209E0;9.783360161E0
1.347767058E1;1.062789917E-1;1.293310547E-1;9.796378326E0;9.797808431E0
1.348764958E1;1.038839722E-1;1.185534668E-1;9.795031128E0;9.796299383E0
1.349762858E1;1.049317932E-1;1.221459961E-1;9.795180817E0;9.796504354E0
1.350760658E1;9.041198730E-2;1.246907043E-1;9.782307587E0;9.783520012E0
1.351758558E1;9.490264893E-2;1.210981750E-1;9.774224396E0;9.775435224E0
1.352756458E1;9.984237671E-2;1.237925720E-1;9.780661011E0;9.781953941E0
1.353754358E1;9.175918579E-2;1.227447510E-1;9.799372101E0;9.800570371E0
1.354752258E1;9.041198730E-2;1.206491089E-1;9.795929260E0;9.797089395E0
1.355750158E1;9.819580078E-2;1.242416382E-1;9.782008209E0;9.783289989E0
1.356748058E1;9.116043091E-2;1.212478638E-1;9.773326263E0;9.774503441E0
1.357745958E1;8.786727905E-2;1.170565796E-1;9.783505096E0;9.784599883E0
1.358743858E1;9.565109253E-2;1.170565796E-1;9.792486420E0;9.793653131E0
1.359741758E1;9.774673462E-2;1.245410156E-1;9.801916809E0;9.803195296E0
1.360739558E1;9.924362183E-2;1.188528442E-1;9.796677704E0;9.797901272E0
1.361737458E1;1.016386414E-1;1.148112488E-1;9.779164124E0;9.780366199E0
1.362735358E1;9.460327148E-2;1.184037781E-1;9.775421906E0;9.776596681E0
1.363733258E1;8.666976929E-2;1.216969299E-1;9.785301361E0;9.786441872E0
1.364731158E1;8.711883545E-2;1.228944397E-1;9.791139221E0;9.792297993E0
1.365729058E1;1.052311707E-1;1.172062683E-1;9.793983307E0;9.795249865E0
1.366726958E1;9.190887451E-2;1.185534668E-1;9.789342957E0;9.790492209E0
1.367724858E1;9.430389404E-2;1.230441284E-1;9.782606964E0;9.783835245E0
1.368722758E1;1.010398865E-1;1.206491089E-1;9.786798248E0;9.788063405E0
1.369720658E1;9.714797974E-2;1.239422607E-1;9.796528015E0;9.797793658E0
1.370718558E1;1.017883301E-1;1.173559570E-1;9.788893890E0;9.790126500E0
1.371716408E1;8.951385498E-2;1.212478638E-1;9.784253540E0;9.785414202E0
1.372714308E1;9.250762939E-2;1.202000427E-1;9.784702606E0;9.785878131E0
1.373712208E1;9.699829102E-2;1.210981750E-1;9.786349182E0;9.787579055E0
1.374710108E1;9.295669556E-2;1.187031555E-1;9.784852295E0;9.786013786E0
1.375708008E1;1.011895752E-1;1.225950623E-1;9.788295135E0;9.789585821E0
1.376705908E1;9.744735718E-2;1.164578247E-1;9.785451050E0;9.786629178E0
1.377703808E1;9.580078125E-2;1.281335449E-1;9.793534241E0;9.794840934E0
1.378701708E1;9.849517822E-2;1.315763855E-1;9.782157898E0;9.783538562E0
1.379699608E1;1.002914429E-1;1.275347900E-1;9.772877197E0;9.774223867E0
1.380697508E1;1.046324158E-1;1.173559570E-1;9.779613190E0;9.780876980E0
1.381695408E1;9.460327148E-2;1.170565796E-1;9.782008209E0;9.783165982E0
1.382693208E1;9.565109253E-2;1.239422607E-1;9.796528015E0;9.797778930E0
1.383691108E1;9.340576172E-2;1.228944397E-1;9.792187042E0;9.793403635E0
1.384689008E1;9.340576172E-2;1.234931946E-1;9.795929260E0;9.797152917E0
1.385686908E1;9.924362183E-2;1.207987976E-1;9.787097626E0;9.788346213E0
1.386684808E1;9.774673462E-2;1.207987976E-1;9.774074707E0;9.775309875E0
1.387682708E1;9.654922485E-2;1.133143616E-1;9.777667236E0;9.778800462E0
1.388680608E1;9.145980835E-2;1.215472412E-1;9.795779572E0;9.796960551E0
1.389678508E1;9.011260986E-2;1.193019104E-1;9.793085175E0;9.794226384E0
1.390676408E1;1.007405090E-1;1.242416382E-1;9.783355408E0;9.784662880E0
1.391674308E1;9.789642334E-2;1.121168518E-1;9.786648560E0;9.787780337E0
1.392672208E1;9.430389404E-2;1.161584473E-1;9.786798248E0;9.787941865E0
1.393670108E1;9.624984741E-2;1.151106262E-1;9.792187042E0;9.793336590E0
1.394667908E1;9.235794067E-2;1.222956848E-1;9.802365875E0;9.803563790E0
1.395665808E1;9.729766846E-2;1.158590698E-1;9.793384552E0;9.794553137E0
1.396663708E1;1.037342834E-1;1.206491089E-1;9.787097626E0;9.788390927E0
1.397661608E1;9.550140381E-2;1.215472412E-1;9.780211945E0;9.781433429E0
1.398659508E1;8.981323242E-2;1.227447510E-1;9.778565369E0;9.779748124E0
1.399657408E1;8.666976929E-2;1.257385254E-1;9.790091400E0;9.791282421E0
1.400655308E1;9.190887451E-2;1.272354126E-1;9.794731750E0;9.795989289E0
1.401653208E1;8.666976929E-2;1.187031555E-1;9.800270233E0;9.801372288E0
1.402651108E1;1.007405090E-1;1.243913269E-1;9.787846069E0;9.789154842E0
1.403649008E1;9.774673462E-2;1.207987976E-1;9.785900116E0;9.787133792E0
1.404646808E1;9.415420532E-2;1.190025330E-1;9.792486420E0;9.793662078E0
1.405644708E1;9.430389404E-2;1.251397705E-1;9.791737976E0;9.792991666E0
1.406642608E1;9.804611206E-2;1.278341675E-1;9.789193268E0;9.790518855E0
1.407640508E1;9.116043091E-2;1.276844788E-1;9.781409454E0;9.782667554E0
1.408638408E1;9.101074219E-2;1.240919495E-1;9.775721283E0;9.776932462E0
1.409636308E1;9.370513916E-2;1.182540894E-1;9.786947937E0;9.788110880E0
1.410634208E1;9.580078125E-2;1.219963074E-1;9.779313812E0;9.780543928E0
1.411632108E1;9.490264893E-2;1.240919495E-1;9.799072723E0;9.800317932E0
1.412630008E1;9.565109253E-2;1.213975525E-1;9.803264008E0;9.804482225E0
1.413627908E1;9.939331055E-2;1.281335449E-1;9.805808716E0;9.807149525E0
1.414625808E1;9.969268799E-2;1.200503540E-1;9.786199493E0;9.787443550E0
1.415623608E1;1.013392639E-1;1.219963074E-1;9.775421906E0;9.776708351E0
1.416621508E1;9.894424438E-2;1.203497314E-1;9.773625641E0;9.774867375E0
1.417619408E1;9.235794067E-2;1.190025330E-1;9.779912567E0;9.781072611E0
1.418617308E1;9.475296021E-2;1.158590698E-1;9.790241089E0;9.791385092E0
1.419615208E1;1.016386414E-1;1.199006653E-1;9.789642334E0;9.790904126E0
1.420613108E1;9.654922485E-2;1.273851013E-1;9.780211945E0;9.781518001E0
1.421611008E1;9.684860229E-2;1.136137390E-1;9.776320038E0;9.777459855E0
1.422608908E1;9.505233765E-2;1.170565796E-1;9.786349182E0;9.787510792E0
1.423606808E1;9.190887451E-2;1.251397705E-1;9.803563385E0;9.804792820E0
1.424604708E1;9.265731812E-2;1.248403931E-1;9.807604980E0;9.808837136E0
1.425602608E1;9.699829102E-2;1.210981750E-1;9.791288910E0;9.792518162E0
1.426600508E1;9.819580078E-2;1.237925720E-1;9.773176575E0;9.774453815E0
1.427598308E1;8.562194824E-2;1.302291870E-1;9.766889648E0;9.768133095E0
1.428596208E1;9.909393311E-2;1.273851013E-1;9.769883423E0;9.771216335E0
1.429594108E1;9.669891357E-2;1.193019104E-1;9.743388519E0;9.744598681E0
1.430592008E1;9.220825195E-2;1.222956848E-1;9.850565643E0;9.851756295E0
1.431589908E1;9.669891357E-2;1.148112488E-1;9.768536224E0;9.769689466E0
1.432587808E1;1.055305481E-1;1.085243225E-1;9.793983307E0;9.795153048E0
1.433585708E1;9.250762939E-2;1.251397705E-1;9.794132996E0;9.795369251E0
1.434583608E1;9.744735718E-2;1.202000427E-1;9.759105835E0;9.760332512E0
1.435581508E1;8.756790161E-2;1.297801208E-1;9.802964630E0;9.804214734E0
1.436579408E1;9.340576172E-2;1.276844788E-1;9.758806458E0;9.760088700E0
1.437577208E1;9.131011963E-2;1.142124939E-1;9.780062256E0;9.781155339E0
1.438575108E1;8.996292114E-2;1.300794983E-1;9.780810699E0;9.782089344E0
1.439573008E1;1.007405090E-1;1.252894592E-1;9.785750427E0;9.787070937E0
1.440570908E1;9.595046997E-2;1.164578247E-1;9.799372101E0;9.800533786E0
1.441568808E1;9.759704590E-2;1.302291870E-1;9.791288910E0;9.792641285E0
1.442566708E1;1.062789917E-1;1.170565796E-1;9.802515564E0;9.803790535E0
1.443564608E1;9.385482788E-2;1.234931946E-1;9.809251556E0;9.810477837E0
1.444562508E1;9.804611206E-2;1.281335449E-1;9.817035370E0;9.818361100E0
1.445560408E1;9.131011963E-2;1.092727661E-1;9.805209961E0;9.806243952E0
1.446558308E1;9.041198730E-2;1.193019104E-1;9.795779572E0;9.796923226E0
1.447556208E1;9.190887451E-2;1.231938171E-1;9.802216187E0;9.803421144E0
1.448554008E1;8.891510010E-2;1.136137390E-1;9.705666962E0;9.706739161E0
1.449551908E1;1.016386414E-1;1.139131165E-1;9.811496887E0;9.812684535E0
1.450549808E1;9.460327148E-2;1.258882141E-1;9.835746460E0;9.837006966E0
1.451547708E1;9.699829102E-2;1.121168518E-1;9.819280701E0;9.820399805E0
1.452545608E1;1.056802368E-1;1.255888367E-1;9.800270233E0;9.801644633E0
1.453543508E1;1.026864624E-1;1.209484863E-1;9.725126495E0;9.726420636E0
1.454541408E1;1.055305481E-1;1.095721436E-1;9.771529999E0;9.772714120E0
1.455539308E1;1.032852173E-1;1.182540894E-1;9.732012177E0;9.733278629E0
1.456537208E1;9.145980835E-2;1.167572021E-1;9.742939453E0;9.744068264E0
1.457535108E1;8.891510010E-2;1.040336609E-1;9.754166107E0;9.755126106E0
1.458533008E1;8.876541138E-2;1.255888367E-1;9.824669495E0;9.825873118E0
1.459530908E1;9.684860229E-2;1.109193420E-1;9.816137238E0;9.817241620E0
1.460528708E1;1.025367737E-1;1.118174744E-1;9.787995758E0;9.789171461E0
1.461526608E1;1.038839722E-1;1.233435059E-1;9.783205719E0;9.784534718E0
1.462524508E1;9.610015869E-2;1.149609375E-1;9.786349182E0;9.787496185E0
1.463522408E1;1.008901978E-1;1.095721436E-1;9.787097626E0;9.788230934E0
1.464520308E1;9.565109253E-2;1.261875916E-1;9.803114319E0;9.804393035E0
1.465518208E1;9.654922485E-2;1.204994202E-1;9.766739960E0;9.767960447E0
1.466516108E1;9.505233765E-2;1.163081360E-1;9.765243073E0;9.766398251E0
1.467514008E1;8.981323242E-2;1.212478638E-1;9.779164124E0;9.780328134E0
1.468511908E1;9.400451660E-2;1.191522217E-1;9.801018677E0;9.802193693E0
1.469509808E1;9.939331055E-2;1.175056458E-1;9.806706848E0;9.807914448E0
1.470507708E1;9.699829102E-2;1.200503540E-1;9.798174591E0;9.799390087E0
1.471505508E1;9.999206543E-2;1.193019104E-1;9.789642334E0;9.790879858E0
1.472503433E1;9.639953613E-2;1.134640503E-1;9.787097626E0;9.788230019E0
1.473501333E1;9.355545044E-2;1.200503540E-1;9.795779572E0;9.796961882E0
1.474499233E1;9.729766846E-2;1.134640503E-1;9.787546692E0;9.788687919E0
1.475497133E1;9.699829102E-2;1.219963074E-1;9.772877197E0;9.774119934E0
1.476495033E1;9.400451660E-2;1.161584473E-1;9.765243073E0;9.766386328E0
1.477492933E1;8.906478882E-2;1.182540894E-1;9.801916809E0;9.803034719E0
1.478490833E1;8.696914673E-2;1.173559570E-1;9.817334747E0;9.818421339E0
1.479488733E1;9.984237671E-2;1.178050232E-1;9.814191284E0;9.815406109E0
1.480486633E1;9.639953613E-2;1.148112488E-1;9.784702606E0;9.785850989E0
1.481484533E1;1.020877075E-1;1.119671631E-1;9.764195251E0;9.765370830E0
1.482482333E1;9.190887451E-2;1.258882141E-1;9.795779572E0;9.797019572E0
1.483480233E1;9.086105347E-2;1.237925720E-1;9.806706848E0;9.807909030E0
1.484478133E1;9.520202637E-2;1.248403931E-1;9.801168365E0;9.802425714E0
1.485476033E1;9.385482788E-2;1.206491089E-1;9.775122528E0;9.776317577E0
1.486473933E1;1.032852173E-1;1.169068909E-1;9.760003967E0;9.761250560E0
1.487471833E1;1.047821045E-1;1.197509766E-1;9.773925018E0;9.775220194E0
1.488469733E1;1.013392639E-1;1.173559570E-1;9.800719299E0;9.801945769E0
1.489467633E1;8.906478882E-2;1.202000427E-1;9.822723541E0;9.823862700E0
1.490465533E1;9.909393311E-2;1.181044006E-1;9.805808716E0;9.807020589E0
1.491463433E1;1.052311707E-1;1.170565796E-1;9.775272217E0;9.776539406E0
1.492461333E1;9.999206543E-2;1.207987976E-1;9.776170349E0;9.777427957E0
1.493459133E1;9.774673462E-2;1.234931946E-1;9.769284668E0;9.770554125E0
1.494457033E1;9.610015869E-2;1.200503540E-1;9.785001984E0;9.786210255E0
1.495454933E1;8.876541138E-2;1.197509766E-1;9.781409454E0;9.782545196E0
1.496452833E1;9.415420532E-2;1.154100037E-1;9.782606964E0;9.783740772E0
1.497450733E1;9.445358276E-2;1.134640503E-1;9.792486420E0;9.793599229E0
1.498448633E1;9.984237671E-2;1.188528442E-1;9.796378326E0;9.797608015E0
1.499446533E1;1.016386414E-1;1.179547119E-1;9.790989532E0;9.792227517E0
1.500444433E1;9.610015869E-2;1.173559570E-1;9.791887665E0;9.793062427E0
1.501442333E1;9.954299927E-2;1.196012878E-1;9.782457275E0;9.783694784E0
1.502440233E1;9.340576172E-2;1.133143616E-1;9.780211945E0;9.781314352E0
1.503438133E1;9.654922485E-2;1.172062683E-1;9.787546692E0;9.788724601E0
1.504435933E1;9.295669556E-2;1.131646729E-1;9.785151672E0;9.786247516E0
1.505433833E1;9.475296021E-2;1.163081360E-1;9.775272217E0;9.776423304E0
1.506431733E1;9.265731812E-2;1.113684082E-1;9.773026886E0;9.774100614E0
1.507429633E1;1.017883301E-1;1.237925720E-1;9.796977081E0;9.798287881E0
1.508427533E1;1.005908203E-1;1.215472412E-1;9.810449066E0;9.811717644E0
1.509425433E1;1.013392639E-1;1.109193420E-1;9.806706848E0;9.807857664E0
1.510423333E1;1.107696533E-1;1.148112488E-1;9.783654785E0;9.784955416E0
1.511421233E1;9.939331055E-2;1.218466187E-1;9.774972839E0;9.776237499E0
1.512419133E1;9.175918579E-2;1.207987976E-1;9.790241089E0;9.791416275E0
1.513417033E1;8.831634521E-2;1.196012878E-1;9.798473969E0;9.799601847E0
1.514414933E1;9.325607300E-2;1.227447510E-1;9.787546692E0;9.788760556E0
1.515412733E1;1.002914429E-1;1.242416382E-1;9.783954163E0;9.785256942E0
1.516410633E1;9.190887451E-2;1.155596924E-1;9.782457275E0;9.783571517E0
1.517408533E1;1.091230774E-1;1.172062683E-1;9.793983307E0;9.795292449E0
1.518406433E1;9.969268799E-2;1.204994202E-1;9.794582062E0;9.795830567E0
1.519404333E1;9.954299927E-2;1.134640503E-1;9.807006226E0;9.808167719E0
1.520402233E1;9.819580078E-2;1.149609375E-1;9.795330505E0;9.796497238E0
1.521400133E1;9.430389404E-2;1.149609375E-1;9.781559143E0;9.782689227E0
1.522398033E1;9.580078125E-2;1.210981750E-1;9.765991516E0;9.767212133E0
1.523395933E1;8.637039185E-2;1.193019104E-1;9.775272217E0;9.776381729E0
1.524393833E1;8.801696777E-2;1.149609375E-1;9.789043579E0;9.790114259E0
1.525391733E1;9.250762939E-2;1.182540894E-1;9.804162140E0;9.805311671E0
1.526389533E1;9.550140381E-2;1.152603149E-1;9.788893890E0;9.790038256E0
1.527387433E1;9.340576172E-2;1.140628052E-1;9.791288910E0;9.792398760E0
1.528385333E1;1.064286804E-1;1.157093811E-1;9.796977081E0;9.798238396E0
1.529383233E1;9.969268799E-2;1.155596924E-1;9.796228638E0;9.797417425E0
1.530381133E1;9.969268799E-2;1.246907043E-1;9.797875214E0;9.799175736E0
1.531379033E1;9.624984741E-2;1.209484863E-1;9.781858521E0;9.783079714E0
1.532376933E1;1.014889526E-1;1.222956848E-1;9.784253540E0;9.785544113E0
1.533374833E1;8.681945801E-2;1.133143616E-1;9.777816925E0;9.778858910E0
1.534372733E1;9.190887451E-2;1.182540894E-1;9.785151672E0;9.786297794E0
1.535370633E1;9.131011963E-2;1.249900818E-1;9.786798248E0;9.788022273E0
1.536368533E1;9.714797974E-2;1.263372803E-1;9.788295135E0;9.789592458E0
1.537366333E1;1.014889526E-1;1.157093811E-1;9.796228638E0;9.797437634E0
1.538364233E1;1.004411316E-1;1.221459961E-1;9.806407471E0;9.807682476E0
1.539362133E1;1.032852173E-1;1.197509766E-1;9.805209961E0;9.806485125E0
1.540360033E1;9.924362183E-2;1.185534668E-1;9.800719299E0;9.801938737E0
1.541357933E1;8.741821289E-2;1.212478638E-1;9.768985291E0;9.770128791E0
1.542355833E1;9.205856323E-2;1.193019104E-1;9.768985291E0;9.770147457E0
1.543353733E1;9.535171509E-2;1.218466187E-1;9.775571594E0;9.776795924E0
1.544351633E1;9.759704590E-2;1.193019104E-1;9.789941711E0;9.791155031E0
1.545349533E1;9.550140381E-2;1.203497314E-1;9.798923035E0;9.800127408E0
1.546347433E1;1.020877075E-1;1.202000427E-1;9.794132996E0;9.795402548E0
1.547345333E1;1.098715210E-1;1.152603149E-1;9.781259766E0;9.782555867E0
1.548343133E1;9.490264893E-2;1.164578247E-1;9.798324280E0;9.799475885E0
1.549341033E1;9.954299927E-2;1.182540894E-1;9.803114319E0;9.804332878E0
1.550338933E1;1.002914429E-1;1.127156067E-1;9.791887665E0;9.793049945E0
1.551336833E1;9.879455566E-2;1.185534668E-1;9.773925018E0;9.775143250E0
1.552334733E1;9.984237671E-2;1.199006653E-1;9.767039337E0;9.768285524E0
1.553332633E1;9.400451660E-2;1.248403931E-1;9.783355408E0;9.784603467E0
1.554330533E1;9.520202637E-2;1.261875916E-1;9.794582062E0;9.795857517E0
1.555328433E1;9.520202637E-2;1.187031555E-1;9.791887665E0;9.793069892E0
1.556326333E1;9.894424438E-2;1.181044006E-1;9.791139221E0;9.792351396E0
1.557324233E1;1.040336609E-1;1.179547119E-1;9.791139221E0;9.792402339E0
1.558322133E1;1.079255676E-1;1.199006653E-1;9.802216187E0;9.803543557E0
1.559319933E1;1.008901978E-1;1.197509766E-1;9.787247314E0;9.788499840E0
1.560317833E1;9.774673462E-2;1.243913269E-1;9.778265991E0;9.779545665E0
1.561315733E1;9.041198730E-2;1.228944397E-1;9.777218170E0;9.778408486E0
1.562313633E1;8.801696777E-2;1.234931946E-1;9.785750427E0;9.786925410E0
1.563311533E1;9.400451660E-2;1.230441284E-1;9.787397003E0;9.788621803E0
1.564309433E1;9.295669556E-2;1.218466187E-1;9.788893890E0;9.790093521E0
1.565307333E1;1.004411316E-1;1.166075134E-1;9.801168365E0;9.802376603E0
1.566305233E1;1.077758789E-1;1.227447510E-1;9.797575836E0;9.798937401E0
1.567303133E1;1.071771240E-1;1.181044006E-1;9.786798248E0;9.788097647E0
1.568301033E1;1.010398865E-1;1.157093811E-1;9.800719299E0;9.801923102E0
1.569298933E1;9.595046997E-2;1.149609375E-1;9.802365875E0;9.803509538E0
1.570296733E1;9.909393311E-2;1.182540894E-1;9.783355408E0;9.784571870E0
1.571294633E1;9.849517822E-2;1.167572021E-1;9.760003967E0;9.761199260E0
1.572292496E1;9.235794067E-2;1.199006653E-1;9.770482178E0;9.771654320E0
1.573290396E1;1.049317932E-1;1.237925720E-1;9.784852295E0;9.786197919E0
1.574288296E1;1.034349060E-1;1.197509766E-1;9.808503113E0;9.809779426E0
1.575286196E1;9.101074219E-2;1.242416382E-1;9.805209961E0;9.806419393E0
1.576284096E1;9.595046997E-2;1.175056458E-1;9.780511322E0;9.781687778E0
1.577281996E1;9.999206543E-2;1.194515991E-1;9.773026886E0;9.774268342E0
1.578279896E1;9.340576172E-2;1.243913269E-1;9.805958405E0;9.807192160E0
1.579277796E1;9.774673462E-2;1.128652954E-1;9.819131012E0;9.820266128E0
1.580275696E1;1.005908203E-1;1.197509766E-1;9.791139221E0;9.792388169E0
1.581273496E1;1.001417542E-1;1.212478638E-1;9.764794006E0;9.766060178E0
1.582271396E1;9.729766846E-2;1.197509766E-1;9.771230621E0;9.772448771E0
1.583269296E1;9.415420532E-2;1.191522217E-1;9.789193268E0;9.790371142E0
1.584267196E1;9.385482788E-2;1.204994202E-1;9.791288910E0;9.792480143E0
1.585265096E1;1.038839722E-1;1.233435059E-1;9.797575836E0;9.798902886E0
1.586262996E1;9.879455566E-2;1.193019104E-1;9.788145447E0;9.789371001E0
1.587260896E1;8.876541138E-2;1.164578247E-1;9.777816925E0;9.778913311E0
1.588258796E1;1.011895752E-1;1.160087585E-1;9.792187042E0;9.793396981E0
1.589256696E1;1.025367737E-1;1.227447510E-1;9.804012451E0;9.805316936E0
1.590254596E1;9.684860229E-2;1.258882141E-1;9.795929260E0;9.797216828E0
1.591252496E1;9.654922485E-2;1.202000427E-1;9.786349182E0;9.787563543E0
1.592250396E1;9.041198730E-2;1.184037781E-1;9.748477936E0;9.749616190E0
1.593248196E1;9.684860229E-2;1.239422607E-1;9.778565369E0;9.779830367E0
1.594246096E1;9.789642334E-2;1.237925720E-1;9.812993774E0;9.814262842E0
1.595243996E1;9.789642334E-2;1.225950623E-1;9.804461517E0;9.805716644E0
1.596241896E1;1.035845947E-1;1.269360352E-1;9.793983307E0;9.795353569E0
1.597239796E1;1.061293030E-1;1.219963074E-1;9.770482178E0;9.771820123E0
1.598237696E1;9.445358276E-2;1.203497314E-1;9.773026886E0;9.774224269E0
1.599235596E1;1.026864624E-1;1.130149841E-1;9.787995758E0;9.789186782E0
1.600233496E1;8.786727905E-2;1.155596924E-1;9.796827393E0;9.797902922E0
1.601231396E1;9.654922485E-2;1.200503540E-1;9.772727509E0;9.773941723E0
1.602229296E1;9.879455566E-2;1.254391479E-1;9.780361633E0;9.781664941E0
1.603227096E1;9.999206543E-2;1.157093811E-1;9.797426147E0;9.798619606E0
1.604224996E1;9.475296021E-2;1.127156067E-1;9.791737976E0;9.792845119E0
1.605222896E1;9.879455566E-2;1.221459961E-1;9.785001984E0;9.786263017E0
1.606220796E1;1.037342834E-1;1.140628052E-1;9.770482178E0;9.771698579E0
1.607218696E1;1.122665405E-1;1.103205872E-1;9.792785797E0;9.794050647E0
1.608216596E1;9.624984741E-2;1.203497314E-1;9.816137238E0;9.817346808E0
1.609214496E1;9.954299927E-2;1.142124939E-1;9.792336731E0;9.793508664E0
1.610212396E1;9.610015869E-2;1.237925720E-1;9.780810699E0;9.782066130E0
1.611210296E1;9.954299927E-2;1.185534668E-1;9.765542450E0;9.766769326E0
1.612208196E1;1.029858398E-1;1.163081360E-1;9.775721283E0;9.776955573E0
1.613206096E1;1.023870850E-1;1.228944397E-1;9.813592529E0;9.814896051E0
1.614203996E1;1.002914429E-1;1.263372803E-1;9.812694397E0;9.814020115E0
1.615201796E1;9.864486694E-2;1.137634277E-1;9.795180817E0;9.796338099E0
1.616199696E1;1.004411316E-1;1.184037781E-1;9.771529999E0;9.772763498E0
1.617197596E1;1.068777466E-1;1.118174744E-1;9.795330505E0;9.796551725E0
1.618195496E1;1.020877075E-1;1.172062683E-1;9.848170624E0;9.849397131E0
1.619193396E1;1.014889526E-1;1.206491089E-1;9.745334473E0;9.746609677E0
1.620191296E1;9.984237671E-2;1.143621826E-1;9.796977081E0;9.798153252E0
1.621189196E1;9.969268799E-2;1.219963074E-1;9.773775330E0;9.775045060E0
1.622187096E1;8.696914673E-2;1.068777466E-1;9.781858521E0;9.782828967E0
1.623184996E1;1.001417542E-1;1.191522217E-1;9.800569611E0;9.801805462E0
1.624182896E1;1.080752563E-1;1.213975525E-1;9.785301361E0;9.786651131E0
1.625180796E1;8.876541138E-2;1.119671631E-1;9.784852295E0;9.785895482E0
1.626178596E1;1.019380188E-1;1.200503540E-1;9.799372101E0;9.800637582E0
1.627176496E1;1.031355286E-1;1.202000427E-1;9.811047821E0;9.812326143E0
1.628174396E1;1.055305481E-1;1.062789917E-1;9.781409454E0;9.782556048E0
1.629172296E1;1.008901978E-1;1.288819885E-1;9.789193268E0;9.790561487E0
1.630170196E1;9.565109253E-2;1.197509766E-1;9.774224396E0;9.775425923E0
1.631168096E1;8.981323242E-2;1.157093811E-1;9.791438599E0;9.792534141E0
1.632165996E1;1.005908203E-1;1.216969299E-1;9.786798248E0;9.788071751E0
1.633163896E1;9.984237671E-2;1.178050232E-1;9.790540466E0;9.791758225E0
1.634161796E1;1.068777466E-1;1.142124939E-1;9.787247314E0;9.788497195E0
1.635159696E1;1.023870850E-1;1.143621826E-1;9.792486420E0;9.793689402E0
1.636157596E1;1.041833496E-1;1.203497314E-1;9.768536224E0;9.769833069E0
1.637155496E1;9.580078125E-2;1.152603149E-1;9.770033112E0;9.771182617E0
1.638153296E1;9.385482788E-2;1.163081360E-1;9.824220428E0;9.825357161E0
1.639151196E1;9.340576172E-2;1.227447510E-1;9.777667236E0;9.778883755E0
1.640149096E1;8.876541138E-2;1.118174744E-1;9.749226379E0;9.750271660E0
1.641146996E1;9.056167603E-2;1.219963074E-1;9.781858521E0;9.783038415E0
1.642144896E1;9.475296021E-2;1.191522217E-1;9.793683929E0;9.794867038E0
1.643142796E1;1.019380188E-1;1.110690308E-1;9.802665253E0;9.803824445E0
1.644140696E1;1.098715210E-1;1.278341675E-1;9.794881439E0;9.796331749E0
1.645138596E1;1.004411316E-1;1.118174744E-1;9.791887665E0;9.793041183E0
1.646136496E1;9.879455566E-2;1.121168518E-1;9.789492645E0;9.790633116E0
1.647134396E1;9.834548950E-2;1.210981750E-1;9.796378326E0;9.797620370E0
1.648132296E1;1.007405090E-1;1.145118713E-1;9.801018677E0;9.802205299E0
1.649130096E1;9.624984741E-2;1.163081360E-1;9.786349182E0;9.787513572E0
1.650127996E1;9.355545044E-2;1.169068909E-1;9.775721283E0;9.776867926E0
1.651125896E1;9.490264893E-2;1.199006653E-1;9.792935486E0;9.794129268E0
1.652123796E1;9.460327148E-2;1.163081360E-1;9.792636108E0;9.793783708E0
1.653121696E1;1.046324158E-1;1.163081360E-1;9.803862762E0;9.805110942E0
1.654119596E1;9.475296021E-2;1.207987976E-1;9.792187042E0;9.793390503E0
1.655117496E1;9.460327148E-2;1.115180969E-1;9.800270233E0;9.801361268E0
1.656115396E1;1.019380188E-1;1.160087585E-1;9.732311554E0;9.733536745E0
1.657113296E1;9.714797974E-2;1.184037781E-1;9.798773346E0;9.799970218E0
1.658111196E1;9.310638428E-2;1.170565796E-1;9.788145447E0;9.789288142E0
1.659109096E1;9.430389404E-2;1.151106262E-1;9.808652802E0;9.809781520E0
